,net_acc_mean,net_acc_std,net_acc_min,net_acc_max,ACC_x_mean,ACC_x_std,ACC_x_min,ACC_x_max,ACC_y_mean,ACC_y_std,ACC_y_min,ACC_y_max,ACC_z_mean,ACC_z_std,ACC_z_min,ACC_z_max,BVP_mean,BVP_std,BVP_min,BVP_max,EDA_mean,EDA_std,EDA_min,EDA_max,EDA_phasic_mean,EDA_phasic_std,EDA_phasic_min,EDA_phasic_max,EDA_smna_mean,EDA_smna_std,EDA_smna_min,EDA_smna_max,EDA_tonic_mean,EDA_tonic_std,EDA_tonic_min,EDA_tonic_max,TEMP_mean,TEMP_std,TEMP_min,TEMP_max,BVP_peak_freq,TEMP_slope,0,1,2
0,0.035819211,0.006321659,0,0.052292068,-0.035635713,0.007285187,-0.052292043,0.014449117,-2.45E-05,5.01E-06,-3.60E-05,9.94E-06,-2.45E-05,5.01E-06,-3.60E-05,9.94E-06,-0.651701526,50.73958051,-248.08,193.79,5.168087855,0.114054923,4.716893857,5.281928426,0.227595974,0.221011985,0.004541304,0.683475205,0.208784879,0.387418829,1.35E-08,2.319314549,2.090390592,0.314967459,1.412327631,2.366229799,34.06207207,0.014526591,34.03,34.09,0.144714528,0.000222885,0,1,0
0,0.033292762,0.005796704,0,0.059172603,-0.033286519,0.005832351,-0.059172575,0.002752213,-2.29E-05,4.01E-06,-4.07E-05,1.89E-06,-2.29E-05,4.01E-06,-4.07E-05,1.89E-06,0.4560181,45.89710498,-214.87,276.26,4.822198789,0.058685449,4.659182568,4.956112579,0.441550448,0.212722495,0.030923094,0.730569011,0.299725967,0.469239541,1.58E-08,2.103943279,1.471926225,0.209178394,1.25582548,1.87978595,34.07581818,0.009083633,34.07,34.09,0.149321267,0.000124067,0,1,0
0,0.03326085,0.003161412,0.017201338,0.088070851,-0.033260834,0.003161411,-0.088070809,-0.01720133,-2.29E-05,2.18E-06,-6.06E-05,-1.18E-05,-2.29E-05,2.18E-06,-6.06E-05,-1.18E-05,0.358626343,33.16823012,-159.49,103.83,4.747909849,0.039338596,4.686902285,4.819631156,0.013135527,0.010751673,0.000345704,0.038344128,0.009117967,0.02746525,2.99E-08,0.15268245,1.813859278,0.041340236,1.754647889,1.891367996,34.09,0.012006005,34.05,34.11,0.140192199,0.000219024,0,1,0
0,0.035043251,0.002081058,0.002064161,0.052980121,-0.035043234,0.002081057,-0.052980096,-0.00206416,-2.41E-05,1.43E-06,-3.65E-05,-1.42E-06,-2.41E-05,1.43E-06,-3.65E-05,-1.42E-06,-0.291244344,32.29003391,-80.7,137.85,4.645927267,0.026885842,4.591930031,4.691911496,0.029693362,0.026070927,0.001659048,0.073510891,0.022621788,0.067409187,1.85E-08,0.576018331,1.677998992,0.028825825,1.643885789,1.752807171,34.10690909,0.017722377,34.07,34.13,0.167420814,0.000307013,0,1,0
0,0.034777413,0.000382489,0.032338516,0.036466837,-0.034777396,0.000382489,-0.03646682,-0.0323385,-2.39E-05,2.63E-07,-2.51E-05,-2.23E-05,-2.39E-05,2.63E-07,-2.51E-05,-2.23E-05,-0.279225551,36.64097129,-95.04,52.74,4.527603798,0.034866193,4.476822287,4.595736472,0.003384616,0.002205005,7.16E-05,0.007385357,0.002674622,0.009534827,3.04E-08,0.069236107,1.565962937,0.039380264,1.505166018,1.642412766,34.10207207,0.012384029,34.09,34.13,0.153759186,-9.30E-05,0,1,0
0,0.035020679,0.002073846,0.015825231,0.061236764,-0.035020662,0.002073845,-0.061236735,-0.015825224,-2.41E-05,1.43E-06,-4.21E-05,-1.09E-05,-2.41E-05,1.43E-06,-4.21E-05,-1.09E-05,0.712873303,40.37213811,-99.57,111.48,4.417832062,0.035386669,4.352051529,4.481474832,0.004417972,0.003056868,0.000997225,0.014124775,0.003044012,0.010292256,2.83E-08,0.065681898,1.436564281,0.039651971,1.364730139,1.504033953,34.08745455,0.012680433,34.07,34.13,0.153846154,-6.35E-05,0,1,0
0,0.025675138,0.001799848,0.019953552,0.049539854,-0.025675125,0.001799847,-0.04953983,-0.019953543,-1.77E-05,1.24E-06,-3.41E-05,-1.37E-05,-1.77E-05,1.24E-06,-3.41E-05,-1.37E-05,-0.112302036,43.25151797,-157.05,118.2,4.288510892,0.04686123,4.204603988,4.358050919,0.02711269,0.026267168,0.00095623,0.10046516,0.02508008,0.06376758,1.55E-08,0.389166483,1.262394683,0.074547607,1.087233184,1.362940167,34.07378378,0.012159159,34.05,34.09,0.14479638,7.60E-05,0,1,0
0,0.039047038,0.004331634,0.008256642,0.053668175,-0.039047019,0.004331632,-0.05366815,-0.008256638,-2.69E-05,2.98E-06,-3.69E-05,-5.68E-06,-2.69E-05,2.98E-06,-3.69E-05,-5.68E-06,-1.904267948,43.66474415,-145.07,114.3,4.062234114,0.047272027,3.916986388,4.182220921,0.05487875,0.064678084,0.001569656,0.255319397,0.055437093,0.160796058,1.20E-08,1.062220455,0.971425454,0.09070122,0.737866239,1.08334724,34.08709091,0.012887306,34.05,34.11,0.162803844,0.000121182,0,1,0
0,0.038587038,0.002388441,0.012384963,0.059172603,-0.03858702,0.002388439,-0.059172575,-0.012384958,-2.65E-05,1.64E-06,-4.07E-05,-8.52E-06,-2.65E-05,1.64E-06,-4.07E-05,-8.52E-06,1.590090498,38.38725394,-88.45,223.72,4.019574694,0.031212011,3.965526327,4.113610764,0.117454042,0.124641289,0.005223197,0.361382215,0.073159851,0.232001235,2.99E-08,2.130064748,0.858027758,0.09422122,0.697236531,0.952570956,34.09612613,0.016503954,34.07,34.13,0.158371041,0.000157424,0,1,0
0,0.039955307,0.00221041,0.026146034,0.050227907,-0.039955288,0.002210409,-0.050227884,-0.026146022,-2.75E-05,1.52E-06,-3.46E-05,-1.80E-05,-2.75E-05,1.52E-06,-3.46E-05,-1.80E-05,0.142402487,43.19102193,-125.95,145.73,3.895047867,0.063269764,3.80829934,3.976863979,0.058102864,0.040641782,0.000805406,0.147146724,0.045015875,0.113077004,1.67E-08,0.788508353,0.771895762,0.094936536,0.669802878,0.920544769,34.10272727,0.014948949,34.07,34.13,0.167326173,0.000263282,0,1,0
0,0.02590864,0.014124083,0.009632749,0.047475693,-0.025908628,0.014124076,-0.047475671,-0.009632745,-1.78E-05,9.72E-06,-3.27E-05,-6.63E-06,-1.78E-05,9.72E-06,-3.27E-05,-6.63E-06,-0.000390271,38.56787665,-270.7,116.57,3.526359042,0.235141231,3.230427516,3.805116867,0.321464535,0.215367818,0.004406434,0.659712625,0.255398206,0.34462151,7.36E-09,1.891120087,0.078025745,0.431482027,-0.436935239,0.720311388,34.12495495,0.013811725,34.11,34.15,0.158371041,0.000212355,0,1,0
0,0.012863643,0.00031658,0.012384963,0.013073017,-0.012863637,0.00031658,-0.013073011,-0.012384958,-8.85E-06,2.18E-07,-8.99E-06,-8.52E-06,-8.85E-06,2.18E-07,-8.99E-06,-8.52E-06,-0.027098416,36.62117369,-85.19,65.74,3.102708623,0.069775146,2.99252952,3.224478596,0.016141772,0.025859705,0.000225867,0.140219764,0.003735687,0.014786496,2.23E-08,0.121630568,-0.111721471,0.068015368,-0.226049371,-0.012919346,34.12218182,0.011471848,34.11,34.15,0.153846154,2.71E-05,0,1,0
0,0.012965606,0.001807792,0.012384963,0.028898248,-0.0129656,0.001807791,-0.028898234,-0.012384958,-8.92E-06,1.24E-06,-1.99E-05,-8.52E-06,-8.92E-06,1.24E-06,-1.99E-05,-8.52E-06,-0.031401922,36.21977843,-79.01,52.97,2.930581225,0.041008455,2.862294439,2.991678459,0.007841303,0.007080147,0.000475752,0.046275591,0.038916888,0.342011387,2.95E-08,3.61702559,-0.304721563,0.048529108,-0.373378681,-0.227818514,34.12333333,0.015027502,34.09,34.15,0.162803844,0.000115479,0,1,0
0,0.033329344,0.005398519,0.006880535,0.05848455,-0.033329328,0.005398517,-0.058484522,-0.006880532,-2.29E-05,3.71E-06,-4.02E-05,-4.73E-06,-2.29E-05,3.71E-06,-4.02E-05,-4.73E-06,-0.234909502,71.48177706,-523.08,303.81,3.124300573,0.056251463,2.988428341,3.28351114,0.141844141,0.087994399,0.019263852,0.339057242,0.086334226,0.261039587,2.06E-08,2.054194907,-0.212413515,0.075835981,-0.365550279,-0.13640479,34.14509091,0.01277394,34.11,34.18,0.153846154,0.000220724,0,1,0
0,0.036501823,0.006427136,0.003440268,0.065365085,-0.036501805,0.006427133,-0.065365054,-0.003440266,-2.51E-05,4.42E-06,-4.50E-05,-2.37E-06,-2.51E-05,4.42E-06,-4.50E-05,-2.37E-06,-0.815562465,78.70203294,-282.9,436.48,3.158268134,0.044911756,3.001052144,3.231135067,0.091751899,0.062394689,0.017432864,0.264361699,0.081224349,0.238966642,1.93E-08,1.789761802,-0.122512477,0.089578266,-0.300239901,-0.024646029,34.1918018,0.022428995,34.16,34.23,0.113058225,0.000430063,0,1,0
0,0.033145655,0.005877298,0.006880535,0.052980121,-0.03314564,0.005877295,-0.052980096,-0.006880532,-2.28E-05,4.04E-06,-3.65E-05,-4.73E-06,-2.28E-05,4.04E-06,-3.65E-05,-4.73E-06,1.493088235,84.52579513,-334.69,306.89,3.145513843,0.033245287,3.074680373,3.209926189,0.082457393,0.077010254,0.009241467,0.259180215,0.04763445,0.163450977,2.20E-08,1.396339553,-0.128230659,0.074528302,-0.298424605,-0.03997698,34.238,0.017929154,34.21,34.27,0.149321267,0.000431531,0,1,0
0,0.033877296,0.00495296,0.019953552,0.066053138,-0.03387728,0.004952957,-0.066053107,-0.019953543,-2.33E-05,3.41E-06,-4.54E-05,-1.37E-05,-2.33E-05,3.41E-06,-4.54E-05,-1.37E-05,-0.473906162,66.21599573,-245.93,328.81,3.137193465,0.02637039,3.066140686,3.193666643,0.0715637,0.053583212,0.00477387,0.181796002,0.049884127,0.148931133,2.30E-08,1.130312343,-0.127149549,0.037912591,-0.175317758,-0.064764975,34.26369369,0.011384194,34.25,34.29,0.158281515,9.37E-05,0,1,0
0,0.036859121,0.000340625,0.036466837,0.03715489,-0.036859103,0.000340625,-0.037154873,-0.03646682,-2.54E-05,2.34E-07,-2.56E-05,-2.51E-05,-2.54E-05,2.34E-07,-2.56E-05,-2.51E-05,-0.095769231,30.14189833,-71.92,58.1,3.119938327,0.011140927,3.098088817,3.137372062,0.003843966,0.005959692,9.94E-05,0.028374949,0.006447378,0.026390849,3.06E-08,0.23038071,-0.079451225,0.017011212,-0.129759213,-0.059489319,34.28636364,0.01211515,34.27,34.31,0.153846154,-5.55E-05,0,1,0
0,0.033137872,0.005392268,0.000688054,0.068805352,-0.033137856,0.005392266,-0.06880532,-0.000688053,-2.28E-05,3.71E-06,-4.73E-05,-4.73E-07,-2.28E-05,3.71E-06,-4.73E-05,-4.73E-07,0.168467195,44.41620539,-217.39,173.31,3.086431573,0.015071023,3.026745477,3.109261111,0.026976377,0.023644198,0.000732988,0.076390459,0.01713033,0.066889999,2.23E-08,0.511587151,-0.141761673,0.031093796,-0.189316464,-0.104933142,34.29702703,0.013328463,34.27,34.33,0.153846154,0.00020709,0,1,0
0,0.027884438,0.000343541,0.027522141,0.028210195,-0.027884425,0.000343541,-0.028210181,-0.027522128,-1.92E-05,2.36E-07,-1.94E-05,-1.89E-05,-1.92E-05,2.36E-07,-1.94E-05,-1.89E-05,-0.147812323,41.38468683,-150.1,66.39,3.076294129,0.006395398,3.06204906,3.090404205,0.000737879,0.000666429,2.84E-05,0.002541489,0.000526482,0.002766398,3.70E-08,0.020546365,-0.127323616,0.006850433,-0.138368548,-0.114301787,34.30963964,0.010391258,34.29,34.33,0.144714528,1.11E-05,0,1,0
0,0.028763595,0.000943759,0.026834087,0.030962409,-0.028763581,0.000943758,-0.030962394,-0.026834075,-1.98E-05,6.49E-07,-2.13E-05,-1.85E-05,-1.98E-05,6.49E-07,-2.13E-05,-1.85E-05,0.191674208,37.87006005,-95.93,70.25,3.054982316,0.007485869,3.041362031,3.068918781,0.001044064,0.00097201,5.09E-05,0.004002146,0.00075905,0.003615994,3.96E-08,0.02862562,-0.152590659,0.008409789,-0.163828506,-0.138552817,34.31654545,0.014674428,34.29,34.34,0.149321267,1.08E-06,0,1,0
0,0.032109683,0.007343493,0.021329659,0.051604014,-0.032109668,0.007343489,-0.05160399,-0.021329649,-2.21E-05,5.05E-06,-3.55E-05,-1.47E-05,-2.21E-05,5.05E-06,-3.55E-05,-1.47E-05,0.169169022,46.04119968,-154.21,134.16,3.006445508,0.035714194,2.935662556,3.045369039,0.095280619,0.18745655,6.26E-06,0.799580034,0.141687067,0.33061632,1.93E-08,1.537313068,-0.303563552,0.220860171,-1.089204154,-0.164056465,34.31900901,0.012660142,34.29,34.34,0.149236857,-6.93E-05,0,1,0
0,0.035724299,0.007164994,0.008944696,0.061924817,-0.035724282,0.007164991,-0.061924788,-0.008944692,-2.46E-05,4.93E-06,-4.26E-05,-6.15E-06,-2.46E-05,4.93E-06,-4.26E-05,-6.15E-06,-2.49864819,70.61639769,-361.36,221.77,2.888428328,0.162363167,2.153748273,3.026195155,1.232613982,0.48106081,0.163894977,1.941639749,0.887864345,1.166991869,4.62E-09,8.155826172,-1.578665704,0.549290688,-2.239864753,-0.557915392,34.31454545,0.013391745,34.29,34.34,0.108597285,-6.66E-05,0,1,0
0,0.035839425,0.004172601,0.004816375,0.056420389,-0.035839408,0.004172599,-0.056420362,-0.004816372,-2.47E-05,2.87E-06,-3.88E-05,-3.31E-06,-2.47E-05,2.87E-06,-3.88E-05,-3.31E-06,2.504392312,88.56842032,-438.46,630.13,2.886896957,0.047766767,2.708650441,3.023750088,0.236662731,0.165680348,0.003628041,0.474723948,0.174362983,0.400641289,1.51E-08,2.23612379,-0.584510942,0.179438541,-0.849688264,-0.345726286,34.31198198,0.011054315,34.29,34.33,0.144714528,5.23E-05,0,1,0
0,0.040321182,0.001746219,0.026146034,0.046099586,-0.040321163,0.001746218,-0.046099564,-0.026146022,-2.77E-05,1.20E-06,-3.17E-05,-1.80E-05,-2.77E-05,1.20E-06,-3.17E-05,-1.80E-05,-0.215084842,44.01647161,-151.19,220.85,2.838905588,0.026607872,2.797030997,2.888693237,0.01030565,0.004461825,0.001309478,0.020137479,0.007032844,0.01874635,1.98E-08,0.089304825,-0.414409138,0.029291338,-0.451558853,-0.359061922,34.31436364,0.014618001,34.29,34.33,0.153846154,0.000102428,0,1,0
0,0.034961525,0.006652792,0.015137178,0.057796496,-0.034961509,0.006652789,-0.057796469,-0.01513717,-2.41E-05,4.58E-06,-3.98E-05,-1.04E-05,-2.41E-05,4.58E-06,-3.98E-05,-1.04E-05,-0.238071267,77.86742358,-221.86,349.05,2.794655628,0.017655928,2.757588626,2.856042234,0.042202392,0.032491267,0.000177513,0.114132995,0.033453132,0.10468109,1.74E-08,0.77304881,-0.497985326,0.02507729,-0.532041539,-0.45185314,34.31972973,0.011813831,34.29,34.34,0.153846154,0.000161987,0,1,0
0,0.032484065,0.003144847,0.024081873,0.049539854,-0.03248405,0.003144845,-0.04953983,-0.024081862,-2.24E-05,2.16E-06,-3.41E-05,-1.66E-05,-2.24E-05,2.16E-06,-3.41E-05,-1.66E-05,0.499310345,52.02983765,-277.47,217.15,2.768283167,0.012069834,2.746093714,2.800181303,0.009784336,0.009153715,0.000338771,0.032769096,0.007778167,0.034816748,2.37E-08,0.318710621,-0.496337862,0.012066959,-0.51468991,-0.477226316,34.32936364,0.009842142,34.31,34.34,0.113058225,9.32E-05,0,1,0
0,0.030839431,0.007514326,0.008256642,0.053668175,-0.030839416,0.007514323,-0.05366815,-0.008256638,-2.12E-05,5.17E-06,-3.69E-05,-5.68E-06,-2.12E-05,5.17E-06,-3.69E-05,-5.68E-06,1.211578054,110.638676,-371.59,381.32,2.762224329,0.022635442,2.712533259,2.818101336,0.085266734,0.054880644,0.014098305,0.275988503,0.085249794,0.187029041,2.38E-08,0.98903989,-0.578899343,0.061051894,-0.738130555,-0.515803145,34.35567568,0.017012005,34.33,34.39,0.149321267,0.000254388,0,1,0
0,0.033906656,0.007016342,0.006880535,0.062612871,-0.03390664,0.007016338,-0.062612841,-0.006880532,-2.33E-05,4.83E-06,-4.31E-05,-4.73E-06,-2.33E-05,4.83E-06,-4.31E-05,-4.73E-06,-1.837970605,90.35685364,-411.51,279.85,2.733670498,0.042011485,2.631343949,2.806899094,0.124451834,0.074581431,0.005714346,0.277589746,0.074875051,0.216424065,1.62E-08,1.600291763,-0.651630988,0.087120737,-0.761734786,-0.519511777,34.37,0.014012981,34.33,34.39,0.076879593,-3.90E-05,0,1,0
0,0.033019564,0.004807522,0.014449124,0.055044282,-0.033019548,0.004807519,-0.055044256,-0.014449117,-2.27E-05,3.31E-06,-3.79E-05,-9.94E-06,-2.27E-05,3.31E-06,-3.79E-05,-9.94E-06,-0.343274887,74.55067291,-357.52,318.39,2.709636285,0.024944412,2.644009191,2.754933068,0.044944276,0.035898064,0.000684374,0.109854003,0.037770942,0.114770411,1.07E-08,0.593238974,-0.600651622,0.039971258,-0.667253624,-0.519475944,34.37198198,0.017595035,34.34,34.41,0.153846154,-1.58E-05,0,1,0
0,0.039135768,0.006658232,0.009632749,0.055732335,-0.03913575,0.006658229,-0.055732309,-0.009632745,-2.69E-05,4.58E-06,-3.83E-05,-6.63E-06,-2.69E-05,4.58E-06,-3.83E-05,-6.63E-06,-0.925571267,56.7679251,-208.61,252.78,2.656543571,0.028159172,2.614152571,2.745705643,0.068791861,0.057375405,0.002697879,0.184916689,0.051762818,0.151088936,3.46E-08,1.116230713,-0.685512385,0.035231541,-0.746622336,-0.643391362,34.37345455,0.014859118,34.34,34.39,0.149321267,3.35E-05,0,1,0
0,0.035496245,0.002797179,0.019953552,0.059860657,-0.035496229,0.002797178,-0.059860628,-0.019953543,-2.44E-05,1.92E-06,-4.12E-05,-1.37E-05,-2.44E-05,1.92E-06,-4.12E-05,-1.37E-05,1.126184285,49.92066458,-248.23,146.23,2.584782355,0.064912868,2.478285404,2.649676562,0.032671967,0.032272457,0.001080194,0.119950351,0.023432086,0.056729849,1.56E-08,0.430900278,-0.733449303,0.076445244,-0.825703012,-0.637053724,34.39162162,0.013984582,34.37,34.43,0.144714528,0.000104598,0,1,0
0,0.033904538,0.000395887,0.033026569,0.034402676,-0.033904522,0.000395887,-0.03440266,-0.033026554,-2.33E-05,2.72E-07,-2.37E-05,-2.27E-05,-2.33E-05,2.72E-07,-2.37E-05,-2.27E-05,0.467743213,38.44387817,-88.64,54.72,2.429174272,0.02884038,2.385712031,2.485292941,0.013835509,0.019616478,0.00011848,0.06908154,0.014527663,0.04036968,2.98E-08,0.267811989,-0.896778129,0.04850389,-1.00244336,-0.826214125,34.38745455,0.013779851,34.37,34.41,0.140271493,-0.000245249,0,1,0
0,0.031544727,0.003531582,0.002752214,0.075685888,-0.031538493,0.0035867,-0.075685852,0.002752213,-2.17E-05,2.47E-06,-5.21E-05,1.89E-06,-2.17E-05,2.47E-06,-5.21E-05,1.89E-06,-0.175455059,48.66743986,-226.97,192.84,2.514138306,0.073438256,2.374175974,2.574520795,0.037013194,0.036620769,0.001339131,0.133655149,0.024038634,0.118111197,1.70E-08,1.129957443,-0.820354366,0.096457296,-1.004559643,-0.736708168,34.3736036,0.01293036,34.34,34.39,0.158281515,-2.77E-05,0,1,0
0,0.037066938,0.009341946,0,0.087382798,-0.036048851,0.012716478,-0.087382756,0.022017702,-2.48E-05,8.75E-06,-6.01E-05,1.51E-05,-2.48E-05,8.75E-06,-6.01E-05,1.51E-05,-0.876973982,66.07006386,-337.42,218.44,2.429390046,0.172150426,1.97433466,2.631258971,0.581593261,0.366676623,0.002996954,1.262521866,0.454104233,1.159761339,7.36E-09,9.319179004,-1.464403026,0.458389585,-2.126372026,-0.747733172,34.37272727,0.012497934,34.34,34.39,0.076923077,7.30E-06,0,1,0
0,0.036685551,0.00251508,0.021329659,0.047475693,-0.036685533,0.002515079,-0.047475671,-0.021329649,-2.52E-05,1.73E-06,-3.27E-05,-1.47E-05,-2.52E-05,1.73E-06,-3.27E-05,-1.47E-05,1.046936122,24.62387184,-69.59,90.34,2.502347258,0.012740263,2.481802547,2.518984992,0.013673049,0.02032965,7.36E-05,0.112914878,0.00378768,0.020782487,3.13E-08,0.20219873,-0.810858881,0.027911861,-0.921716464,-0.78488893,34.38603604,0.016179137,34.34,34.41,0.162803844,0.000302387,0,1,0
0,0.035730526,0.001932807,0.020641606,0.057108443,-0.035730509,0.001932806,-0.057108415,-0.020641596,-2.46E-05,1.33E-06,-3.93E-05,-1.42E-05,-2.46E-05,1.33E-06,-3.93E-05,-1.42E-05,1.224072398,24.31784531,-56.44,123.07,2.49987219,0.006283666,2.479109642,2.511060715,0.001177753,0.00157014,2.16E-06,0.006215102,0.001315713,0.005883588,2.96E-08,0.04666825,-0.801486355,0.007362184,-0.818145958,-0.789044744,34.40090909,0.012544137,34.37,34.43,0.149321267,7.14E-05,0,1,0
0,0.03624968,0.000319779,0.035778783,0.036466837,-0.036249662,0.000319779,-0.03646682,-0.035778766,-2.49E-05,2.20E-07,-2.51E-05,-2.46E-05,-2.49E-05,2.20E-07,-2.51E-05,-2.46E-05,-1.578489819,38.90542782,-223.56,132.22,2.461509717,0.017877529,2.42652402,2.49748086,0.012966198,0.012043782,0.000235113,0.039150654,0.010703214,0.034557925,1.72E-08,0.23662382,-0.858182406,0.027044726,-0.893661045,-0.818626574,34.42081081,0.011321281,34.41,34.45,0.140271493,1.79E-05,0,1,0
0,0.035779561,5.17E-05,0.03509073,0.036466837,-0.035779544,5.17E-05,-0.03646682,-0.035090713,-2.46E-05,3.56E-08,-2.51E-05,-2.41E-05,-2.46E-05,3.56E-08,-2.51E-05,-2.41E-05,0.40071792,40.0737242,-107.9,72.65,2.414956035,0.016588623,2.39606976,2.445283025,0.005858838,0.004266345,0.000244709,0.018633666,0.003380407,0.010958302,1.92E-08,0.069363829,-0.905261758,0.018688155,-0.924437669,-0.875414337,34.41504505,0.012725365,34.39,34.43,0.144714528,-8.07E-06,0,1,0
0,0.035656584,0.001553278,0.024081873,0.039907104,-0.035656567,0.001553277,-0.039907086,-0.024081862,-2.45E-05,1.07E-06,-2.75E-05,-1.66E-05,-2.45E-05,1.07E-06,-2.75E-05,-1.66E-05,0.226951357,47.48899484,-214.62,112.02,2.394254151,0.014200549,2.366676269,2.426245623,0.01506097,0.018486036,1.04E-06,0.062737287,0.013076155,0.068486892,2.31E-08,0.60766235,-0.938674487,0.014729058,-0.966390218,-0.918945489,34.42454545,0.016821867,34.39,34.45,0.149321267,0.000109641,0,1,0
0,0.037098071,0.000200376,0.036466837,0.037842944,-0.037098054,0.000200376,-0.037842926,-0.03646682,-2.55E-05,1.38E-07,-2.60E-05,-2.51E-05,-2.55E-05,1.38E-07,-2.60E-05,-2.51E-05,-0.179287733,31.34318018,-87.15,46.53,2.355617059,0.008954754,2.338093808,2.373261455,0.002694854,0.004319579,5.62E-07,0.016724539,0.001505999,0.007924261,4.19E-08,0.071485015,-0.97162305,0.009033299,-0.994174492,-0.962577325,34.42423423,0.016848533,34.39,34.47,0.144714528,-0.000230256,0,1,0
0,0.035353031,0.006091359,0.018577445,0.051604014,-0.035353014,0.006091357,-0.05160399,-0.018577436,-2.43E-05,4.19E-06,-3.55E-05,-1.28E-05,-2.43E-05,4.19E-06,-3.55E-05,-1.28E-05,-0.503167421,103.1162468,-399.02,330.17,2.35169994,0.019865732,2.312108469,2.401887516,0.040161693,0.015375121,0.013867018,0.073802777,0.031363921,0.086961882,1.76E-08,0.560564668,-1.013623982,0.013030522,-1.043866218,-0.994529322,34.42709091,0.015917141,34.39,34.45,0.07239819,7.21E-05,0,1,0
0,0.029189019,0.013923802,0,0.088070851,-0.029069276,0.01417206,-0.088070809,0.023393809,-2.00E-05,9.75E-06,-6.06E-05,1.61E-05,-2.00E-05,9.75E-06,-6.06E-05,1.61E-05,0.743866591,60.16128526,-351.29,216.08,3.102883601,0.047868054,3.020988653,3.213950258,0.216883905,0.120105876,0.062448799,0.461321808,0.168887927,0.399799888,1.91E-08,2.25111258,-0.312872234,0.130743681,-0.522791113,-0.155275959,33.78828829,0.028941503,33.73,33.84,0.072357264,-0.00086583,0,0,1
0,0.030345962,0.012926367,0,0.083254476,-0.030182497,0.013303543,-0.083254437,0.010320798,-2.08E-05,9.15E-06,-5.73E-05,7.10E-06,-2.08E-05,9.15E-06,-5.73E-05,7.10E-06,-0.46466629,43.18994111,-299.47,177.61,3.122544691,0.077690113,2.992786903,3.357039756,0.165207207,0.075844318,0.057894522,0.316843216,0.13604495,0.32256604,1.86E-08,2.169566462,-0.237400545,0.052455882,-0.318511527,-0.16463847,33.68490909,0.021479185,33.65,33.73,0.108597285,-0.000467417,0,0,1
0,0.020529525,0.010612667,0,0.071557567,-0.020506165,0.01065771,-0.071557533,0.003440266,-1.41E-05,7.33E-06,-4.92E-05,2.37E-06,-1.41E-05,7.33E-06,-4.92E-05,2.37E-06,0.408377614,28.18863637,-95.29,103.25,3.020209137,0.079397768,2.85489685,3.167403328,0.401996059,0.124457676,0.203732801,0.667602198,0.316118774,0.595136875,1.34E-08,3.221698624,-0.59412825,0.128115108,-0.733407776,-0.300623256,33.60693694,0.038268675,33.53,33.66,0.144714528,-0.001101088,0,0,1
0,0.023154091,0.010069523,0.000688054,0.074997834,-0.023108936,0.010172693,-0.074997799,0.008256638,-1.59E-05,7.00E-06,-5.16E-05,5.68E-06,-1.59E-05,7.00E-06,-5.16E-05,5.68E-06,-0.26188914,27.20057979,-97.04,84.28,3.063051669,0.069941239,2.806517963,3.167409797,0.334185117,0.163787668,0.14960218,0.753170445,0.290240643,0.604944274,9.92E-09,3.652717544,-0.476197768,0.177943862,-0.885829962,-0.265060903,33.52745455,0.027779533,33.47,33.57,0.090497738,-0.000793815,0,0,1
0,0.030049669,0.013431695,0,0.079126155,-0.029922151,0.013713384,-0.079126118,0.01513717,-2.06E-05,9.44E-06,-5.44E-05,1.04E-05,-2.06E-05,9.44E-06,-5.44E-05,1.04E-05,-0.037207462,48.49756267,-287.04,152.71,3.080386547,0.094279031,2.780673847,3.229027021,0.590117165,0.123496946,0.314047403,0.921962302,0.440259154,0.888378095,1.18E-08,6.301604177,-0.711987801,0.126985154,-0.944885063,-0.575732239,33.46711712,0.01757288,33.43,33.49,0.09044658,-0.00041418,0,0,1
0,0.025959232,0.011608044,0,0.088070851,-0.025926529,0.01168087,-0.088070809,0.006192479,-1.78E-05,8.04E-06,-6.06E-05,4.26E-06,-1.78E-05,8.04E-06,-6.06E-05,4.26E-06,0.202121041,36.46984716,-134.66,113.5,3.074683207,0.076620979,2.889632791,3.241127592,0.523138881,0.112388955,0.304830038,0.769548617,0.405543316,0.855593173,1.23E-08,4.703646537,-0.65203971,0.059741148,-0.831628561,-0.587945657,33.42018182,0.021866613,33.37,33.47,0.117647059,-0.000520794,0,0,1
0,0.029534153,0.009732415,0.000688054,0.070869513,-0.029507675,0.009812353,-0.070869479,0.003440266,-2.03E-05,6.75E-06,-4.88E-05,2.37E-06,-2.03E-05,6.75E-06,-4.88E-05,2.37E-06,0.040096154,27.54177153,-102.41,78.56,3.062795466,0.085962545,2.847653193,3.21081086,0.835921476,0.224945019,0.361167628,1.130417319,0.627580541,1.09228242,2.34E-08,5.064400724,-0.977799062,0.18546505,-1.190038346,-0.558868943,33.36504505,0.016812365,33.34,33.41,0.099547511,-0.000378291,0,0,1
0,0.030892358,0.010353567,0,0.080502262,-0.030892343,0.010353562,-0.080502224,0,-2.13E-05,7.12E-06,-5.54E-05,0,-2.13E-05,7.12E-06,-5.54E-05,0,-0.492215941,28.87142371,-114.58,104.38,3.085140738,0.105039253,2.876380464,3.265818459,0.657826633,0.257059395,0.291651265,1.032980487,0.515643238,1.035046609,1.17E-08,5.886501328,-0.774579488,0.172970743,-0.963159468,-0.521983649,33.32718182,0.015083514,33.29,33.37,0.076879593,-0.00025909,0,0,1
0,0.030876013,0.009122576,0,0.073621727,-0.030424561,0.010530655,-0.073621692,0.033026554,-2.09E-05,7.25E-06,-5.07E-05,2.27E-05,-2.09E-05,7.25E-06,-5.07E-05,2.27E-05,0.457686652,40.4656538,-272.35,248.26,3.047593678,0.171118219,2.546383944,3.342797691,1.351278516,0.309449001,0.715511298,1.834276099,1.100688673,1.835804412,1.13E-08,8.398828315,-1.510812036,0.31778588,-1.921765376,-0.950589727,33.27720721,0.021442198,33.25,33.31,0.104072398,-0.000522113,0,0,1
0,0.024169727,0.011654979,0.000688054,0.084630584,-0.023894494,0.012209288,-0.084630543,0.013761064,-1.64E-05,8.40E-06,-5.82E-05,9.47E-06,-1.64E-05,8.40E-06,-5.82E-05,9.47E-06,0.091718485,27.44367511,-102.71,124.83,2.989536467,0.169249239,2.736361661,3.288322012,0.739589562,0.231162341,0.294758917,1.185679216,0.484870772,1.07816133,1.86E-08,7.839688779,-0.967830553,0.107955744,-1.160155338,-0.771248022,33.21509091,0.023110228,33.18,33.25,0.031656303,-0.000561188,0,0,1
0,0.02677649,0.007950522,0.000688054,0.076373941,-0.026742231,0.00806496,-0.076373905,0.013761064,-1.84E-05,5.55E-06,-5.25E-05,9.47E-06,-1.84E-05,5.55E-06,-5.25E-05,9.47E-06,-0.094179864,20.40429069,-110.97,84.57,2.822479299,0.195524102,2.66632051,3.28036509,0.326726692,0.368493568,0.005503698,1.105777002,0.302836672,0.894461149,7.27E-09,6.587051364,-0.749705383,0.152402079,-1.096944786,-0.596744843,33.16369369,0.024602348,33.13,33.23,0.108597285,-0.000556336,0,0,1
0,0.025688369,0.007190304,0.000688054,0.063300924,-0.025683687,0.007206964,-0.063300894,0.00206416,-1.77E-05,4.96E-06,-4.36E-05,1.42E-06,-1.77E-05,4.96E-06,-4.36E-05,1.42E-06,0.076521493,21.23471312,-94.79,74.32,3.031025498,0.112533674,2.739709011,3.217178243,0.933480428,0.293105827,0.225379362,1.349019561,0.661493382,1.222717532,7.09E-09,6.60019464,-1.113140928,0.212631851,-1.302453832,-0.541765951,33.12836364,0.015755361,33.09,33.15,0.07239819,-0.000372833,0,0,1
0,0.024871111,0.00111198,0.008944696,0.030274355,-0.024871099,0.00111198,-0.030274341,-0.008944692,-1.71E-05,7.65E-07,-2.08E-05,-6.15E-06,-1.71E-05,7.65E-07,-2.08E-05,-6.15E-06,-0.073120407,5.851424374,-31.03,64.63,2.944881756,0.099131315,2.848580737,3.257483121,0.113488919,0.090621321,0.005635356,0.347339184,0.090062886,0.274410304,9.29E-09,2.036997121,-0.393470505,0.043511594,-0.527396535,-0.295098875,33.06333333,0.01767236,33.03,33.09,0.063312606,-0.000482625,0,0,1
0,0.026051855,0.006711443,0.000688054,0.088070851,-0.026044059,0.00674158,-0.088070809,0.001376106,-1.79E-05,4.64E-06,-6.06E-05,9.47E-07,-1.79E-05,4.64E-06,-6.06E-05,9.47E-07,0.378772624,37.3466176,-284.04,130.04,3.09016301,0.053958128,3.014598693,3.315283617,0.107287271,0.071385182,0.009585746,0.298242965,0.06889037,0.286694987,1.91E-08,2.900700094,-0.218035254,0.044302374,-0.29184375,-0.150571569,33.00127273,0.018296005,32.97,33.05,0.036199095,-0.000452629,0,0,1
0,0.0247536,0.003926325,0.014449124,0.035778783,-0.024753588,0.003926324,-0.035778766,-0.014449117,-1.70E-05,2.70E-06,-2.46E-05,-9.94E-06,-1.70E-05,2.70E-06,-2.46E-05,-9.94E-06,-0.419694743,11.36604067,-91,59.27,3.086096317,0.065933014,2.895449198,3.207596207,0.145274806,0.127768264,0.010916137,0.393277963,0.110981995,0.330155963,1.48E-08,2.292171162,-0.260235898,0.103543557,-0.413322593,-0.05873979,32.96495495,0.015531072,32.93,32.99,0.18089316,-0.0003245,0,0,1
0,0.032890359,0.006643993,0.019953552,0.057108443,-0.032890344,0.006643989,-0.057108415,-0.019953543,-2.26E-05,4.57E-06,-3.93E-05,-1.37E-05,-2.26E-05,4.57E-06,-3.93E-05,-1.37E-05,0.035729638,12.1652623,-83.36,86.03,3.282184602,0.099320438,3.128408271,3.521655537,0.124983508,0.075771959,0.005305297,0.336446785,0.107696537,0.230492666,1.48E-08,1.18181898,-0.011140837,0.06965484,-0.104033973,0.075408136,32.89272727,0.020266815,32.87,32.93,0.14479638,-0.000434506,0,0,1
0,0.035862844,0.002230846,0.017889392,0.043347372,-0.035862827,0.002230845,-0.043347352,-0.017889383,-2.47E-05,1.53E-06,-2.98E-05,-1.23E-05,-2.47E-05,1.53E-06,-2.98E-05,-1.23E-05,0.032979084,11.06326161,-53.64,35.97,3.44422396,0.059734622,3.359511479,3.631371662,0.174117578,0.06986991,0.058636378,0.34416289,0.130519809,0.287567935,1.31E-08,1.786320072,0.129285287,0.047186546,0.063105489,0.190292379,32.83972973,0.01716163,32.81,32.87,0.108535896,-0.000388908,0,0,1
0,0.036492522,0.001481391,0.022017713,0.050915961,-0.036492505,0.001481391,-0.050915937,-0.022017702,-2.51E-05,1.02E-06,-3.50E-05,-1.51E-05,-2.51E-05,1.02E-06,-3.50E-05,-1.51E-05,0.037992081,7.11622,-55.41,21.53,3.58820112,0.136857988,3.430469197,4.030156455,0.256276152,0.159625986,0.089993173,0.779793297,0.198530212,0.463156802,1.70E-08,2.530469786,0.215252546,0.020234583,0.190599495,0.288568443,32.80490909,0.017042485,32.77,32.84,0.049773756,-0.000417285,0,0,1
0,0.038541116,0.0029806,0.02545798,0.052980121,-0.038541098,0.002980599,-0.052980096,-0.025457968,-2.65E-05,2.05E-06,-3.65E-05,-1.75E-05,-2.65E-05,2.05E-06,-3.65E-05,-1.75E-05,-0.022256787,12.13680422,-46.83,55.39,3.696339125,0.124440757,3.533836473,3.961730187,0.194765143,0.127780267,0.044955396,0.573843659,0.144690911,0.370846899,1.05E-08,3.137173881,0.403231293,0.091707603,0.293356371,0.619535831,32.76099099,0.020922635,32.73,32.79,0.095022624,-0.000477711,0,0,1
0,0.040664352,0.002852061,0.026146034,0.055044282,-0.040664333,0.00285206,-0.055044256,-0.026146022,-2.80E-05,1.96E-06,-3.79E-05,-1.80E-05,-2.80E-05,1.96E-06,-3.79E-05,-1.80E-05,-0.047405314,6.036929426,-38.38,18.34,4.017289221,0.258629074,3.748888578,4.748146448,0.339004042,0.314486739,0.016357742,1.197211003,0.27094501,0.755355824,1.24E-08,6.057756463,0.634052582,0.01637761,0.613312177,0.660533661,32.73432432,0.014557845,32.71,32.77,0.081401922,-0.000302562,0,0,1
0,0.037501252,0.001439444,0.032338516,0.044723479,-0.037501234,0.001439444,-0.044723458,-0.0323385,-2.58E-05,9.90E-07,-3.08E-05,-2.23E-05,-2.58E-05,9.90E-07,-3.08E-05,-2.23E-05,0.023552036,5.918193223,-22.5,18.95,4.25936359,0.213863867,3.920197344,4.77920383,0.46750089,0.240176583,0.203471817,1.080885035,0.386916353,0.686827517,1.23E-08,3.523494889,0.788326017,0.133557311,0.629334563,0.972920287,32.68636364,0.027126883,32.65,32.73,0.067873303,-0.000724207,0,0,1
0,0.039976377,0.001414496,0.030962409,0.045411533,-0.039976358,0.001414496,-0.045411511,-0.030962394,-2.75E-05,9.73E-07,-3.12E-05,-2.13E-05,-2.75E-05,9.73E-07,-3.12E-05,-2.13E-05,0.00473714,7.50674083,-35.74,32.16,4.516508268,0.149138211,4.274183714,4.880963467,0.325640025,0.209667121,0.060325474,0.940436654,0.220491103,0.652820655,1.51E-08,5.416649437,1.230926213,0.215022774,0.973361971,1.543813278,32.64099099,0.016492147,32.61,32.66,0.076879593,-0.000380835,0,0,1
0,0.041515157,0.000802836,0.037842944,0.046099586,-0.041515137,0.000802836,-0.046099564,-0.037842926,-2.86E-05,5.52E-07,-3.17E-05,-2.60E-05,-2.86E-05,5.52E-07,-3.17E-05,-2.60E-05,0.045950226,4.465174418,-12.64,11.73,4.704634799,0.083541676,4.595776305,4.933742282,0.126967908,0.064644093,0.039480316,0.34011246,0.098202933,0.219925404,2.23E-08,1.773653681,1.649177316,0.068955554,1.543672069,1.74850369,32.60090909,0.014926819,32.57,32.63,0.049773756,-0.0002072,0,0,1
0,0.042292357,0.000513158,0.040595158,0.044723479,-0.042292337,0.000513157,-0.044723458,-0.040595139,-2.91E-05,3.53E-07,-3.08E-05,-2.79E-05,-2.91E-05,3.53E-07,-3.08E-05,-2.79E-05,-0.09071792,4.531246444,-13.92,13.33,4.883224679,0.068380913,4.774554469,4.99616224,0.088630291,0.040909658,0.030028111,0.165288478,0.061593704,0.186560653,4.97E-08,1.364194805,1.896302921,0.070986448,1.751513006,2.005639142,32.54945946,0.019351553,32.5,32.59,0.04522329,-0.000416111,0,0,1
0,0.004136873,0.000124258,0.003440268,0.004816375,-0.004136871,0.000124258,-0.004816372,-0.003440266,-2.85E-06,8.55E-08,-3.31E-06,-2.37E-06,-2.85E-06,8.55E-08,-3.31E-06,-2.37E-06,-0.169315998,12.40363198,-32.23,24.83,2.772816993,0.009621023,2.753317605,2.793478994,0.003721719,0.003003809,0.000136571,0.015079083,0.001951261,0.009817785,3.11E-08,0.07276738,-0.484933594,0.009213135,-0.503509338,-0.472237478,31.61432432,0.014557845,31.59,31.63,0.13566987,0.000208494,1,0,0
0,0.004455224,0.000364769,0.003440268,0.006192482,-0.004455222,0.000364769,-0.006192479,-0.003440266,-3.07E-06,2.51E-07,-4.26E-06,-2.37E-06,-3.07E-06,2.51E-07,-4.26E-06,-2.37E-06,-0.010067873,17.2336649,-54.22,45.14,2.735846356,0.010916838,2.718770673,2.754129491,0.001106989,0.001094222,1.35E-05,0.003671022,0.000913471,0.004274144,3.85E-08,0.027101826,-0.525705626,0.01293322,-0.546196549,-0.503971939,31.63763636,0.012928283,31.61,31.67,0.149321267,0.000214954,1,0,0
0,0.00455096,0.000388244,0.002752214,0.006880535,-0.004550958,0.000388244,-0.006880532,-0.002752213,-3.13E-06,2.67E-07,-4.73E-06,-1.89E-06,-3.13E-06,2.67E-07,-4.73E-06,-1.89E-06,0.065963821,15.15615293,-46.44,26.67,2.708334969,0.007748542,2.693090015,2.720571061,0.001344793,0.001876458,6.94E-06,0.006822099,0.001266193,0.006871268,5.21E-08,0.048186441,-0.55814873,0.009414301,-0.572974231,-0.546372555,31.65630631,0.018596131,31.63,31.69,0.162803844,0.000309231,1,0,0
0,0.004269201,0.000323935,0.002752214,0.006192482,-0.004269199,0.000323935,-0.006192479,-0.002752213,-2.94E-06,2.23E-07,-4.26E-06,-1.89E-06,-2.94E-06,2.23E-07,-4.26E-06,-1.89E-06,0.09925905,14.57650713,-50.08,30.97,2.689808781,0.00780515,2.673788323,2.701972019,0.001419804,0.001540767,1.49E-05,0.005805936,0.000808951,0.003660295,3.61E-08,0.027312803,-0.57960459,0.009308584,-0.590099582,-0.566910205,31.67818182,0.01556113,31.65,31.71,0.158371041,0.000289701,1,0,0
0,0.004197515,0.000247,0.002752214,0.005504428,-0.004197513,0.000247,-0.005504426,-0.002752213,-2.89E-06,1.70E-07,-3.79E-06,-1.89E-06,-2.89E-06,1.70E-07,-3.79E-06,-1.89E-06,-0.123595252,12.85731091,-46.42,21.85,2.657385354,0.010988286,2.642010763,2.679273946,0.001471203,0.002498507,8.75E-06,0.00954052,0.001120043,0.00568793,3.08E-08,0.039170283,-0.617790045,0.013305383,-0.631539027,-0.590144935,31.70801802,0.01878373,31.67,31.75,0.149236857,0.000430677,1,0,0
0,0.00447624,0.000591348,0.003440268,0.007568589,-0.004476237,0.000591348,-0.007568585,-0.003440266,-3.08E-06,4.07E-07,-5.21E-06,-2.37E-06,-3.08E-06,4.07E-07,-5.21E-06,-2.37E-06,-0.311708145,9.037998919,-27.48,20.86,2.642974008,0.009294181,2.622625834,2.665692349,0.004513084,0.005617845,5.84E-05,0.021485284,0.003847018,0.018374462,3.76E-08,0.126523748,-0.637438314,0.006046144,-0.652958766,-0.631585253,31.73545455,0.01290781,31.71,31.77,0.171945701,9.23E-05,1,0,0
0,0.005326188,0.001958683,0,0.02339382,0.003448828,0.004506692,-0.022017702,0.023393809,2.37E-06,3.10E-06,-1.51E-05,1.61E-05,2.37E-06,3.10E-06,-1.51E-05,1.61E-05,0.392799774,35.09122811,-209.12,174.36,2.564569395,0.044652589,2.504122097,2.647798601,0.012989732,0.008895006,0.000383974,0.031626503,0.0120101,0.027153682,1.67E-08,0.143115225,-0.737740273,0.047535941,-0.820741013,-0.653693766,31.76675676,0.01851039,31.73,31.81,0.14479638,0.000273254,1,0,0
0,0.003098576,0.001484501,0,0.01169691,0.002696951,0.0021287,-0.007568585,0.011696904,1.86E-06,1.46E-06,-5.21E-06,8.05E-06,1.86E-06,1.46E-06,-5.21E-06,8.05E-06,0.046647824,22.88125962,-126.53,108.67,2.475145734,0.02114657,2.441509383,2.545957289,0.034311847,0.028349338,0.000766778,0.094990006,0.024799619,0.065161057,1.71E-08,0.422319057,-0.863559203,0.016028792,-0.889108006,-0.823696821,31.78163636,0.013586576,31.75,31.81,0.140192199,-4.04E-05,1,0,0
0,0.007165408,0.002653589,0,0.019953552,0.007037757,0.002975656,-0.006880532,0.019953543,4.84E-06,2.05E-06,-4.73E-06,1.37E-05,4.84E-06,2.05E-06,-4.73E-06,1.37E-05,0.067188914,35.52217622,-309.63,293.95,2.569648822,0.076143763,2.425130582,2.672395471,0.066713042,0.07256558,0.000927692,0.240034771,0.057263613,0.185161159,3.34E-08,1.246513894,-0.785511126,0.074549604,-0.884538457,-0.683763842,31.78009009,0.01467335,31.75,31.81,0.162895928,0.000138294,1,0,0
0,0.022813833,0.006181335,0,0.041971265,-0.022123437,0.008320631,-0.041971245,0.019953543,-1.52E-05,5.73E-06,-2.89E-05,1.37E-05,-1.52E-05,5.73E-06,-2.89E-05,1.37E-05,0.136240814,34.17536257,-257.85,127.83,2.560615257,0.017168224,2.527118206,2.613041585,0.02931955,0.033648192,0.000163851,0.110416691,0.015861597,0.072435288,1.41E-08,0.517311665,-0.758596677,0.025203754,-0.803830921,-0.730208135,31.78163636,0.016488413,31.75,31.81,0.113058225,-0.000346234,1,0,0
0,0.009435829,0.006514826,0,0.033026569,0.001681994,0.011342337,-0.033026554,0.027522128,1.16E-06,7.80E-06,-2.27E-05,1.89E-05,1.16E-06,7.80E-06,-2.27E-05,1.89E-05,-0.363059955,50.66288628,-517.92,207.69,2.556599686,0.02059031,2.534175331,2.639791193,0.029336173,0.021918469,0.000273001,0.080504255,0.024991684,0.081999998,2.09E-08,0.546237831,-0.763465618,0.017159211,-0.792978768,-0.742861129,31.73522523,0.020394614,31.71,31.77,0.158371041,-0.000441207,1,0,0
0,0.011795759,0.00516236,0,0.017889392,0.011749053,0.005267778,-0.006192479,0.017889383,8.08E-06,3.62E-06,-4.26E-06,1.23E-05,8.08E-06,3.62E-06,-4.26E-06,1.23E-05,0.799383484,21.0523448,-89.67,63.95,2.55955547,0.020610196,2.520351979,2.581364533,0.01875766,0.013372219,0.001268218,0.05015247,0.014543412,0.042816364,1.23E-08,0.347219479,-0.74912752,0.029030222,-0.805529317,-0.71443271,31.71745455,0.012316756,31.69,31.75,0.158371041,-5.08E-05,1,0,0
0,0.00453228,0.001989153,0,0.024769927,0.004479351,0.002105632,-0.009632745,0.024769915,3.08E-06,1.45E-06,-6.63E-06,1.70E-05,3.08E-06,1.45E-06,-6.63E-06,1.70E-05,-0.618648954,33.38511797,-263.15,142.37,2.506213573,0.009524416,2.488938614,2.524313332,0.008911131,0.01003736,0.000266435,0.033904064,0.005032509,0.017438292,4.11E-08,0.144442097,-0.801921927,0.005441455,-0.809190162,-0.792425909,31.73144144,0.015117965,31.71,31.75,0.126625212,0.000106002,1,0,0