,net_acc_mean,net_acc_std,net_acc_min,net_acc_max,ACC_x_mean,ACC_x_std,ACC_x_min,ACC_x_max,ACC_y_mean,ACC_y_std,ACC_y_min,ACC_y_max,ACC_z_mean,ACC_z_std,ACC_z_min,ACC_z_max,BVP_mean,BVP_std,BVP_min,BVP_max,EDA_mean,EDA_std,EDA_min,EDA_max,EDA_phasic_mean,EDA_phasic_std,EDA_phasic_min,EDA_phasic_max,EDA_smna_mean,EDA_smna_std,EDA_smna_min,EDA_smna_max,EDA_tonic_mean,EDA_tonic_std,EDA_tonic_min,EDA_tonic_max,TEMP_mean,TEMP_std,TEMP_min,TEMP_max,BVP_peak_freq,TEMP_slope,0,1,2
0,0.026474123,0.01248864,0.000688054,0.084630584,0.026413468,0.012616385,-0.009632745,0.084630543,1.82E-05,8.68E-06,-6.63E-06,5.82E-05,1.82E-05,8.68E-06,-6.63E-06,5.82E-05,-2.553374788,149.9658702,-756.5,526.02,8.801907956,0.253250739,7.885669325,9.154045853,0.218903495,0.141912326,0.037343783,0.518636639,0.181150011,0.34537231,3.96E-08,1.896200397,0.277449299,0.166565626,5.03E-05,0.469781591,34.78981982,0.00948987,34.77,34.81,0.072357264,-8.27E-05,0,1,0
0,0.036308055,0.010456661,0,0.063300924,0.036297141,0.010494419,-0.004816372,0.063300894,2.50E-05,7.22E-06,-3.31E-06,4.36E-05,2.50E-05,7.22E-06,-3.31E-06,4.36E-05,4.644773756,95.09005433,-596.77,304.74,8.14248333,0.070786583,7.997465896,8.307644714,0.121999673,0.11222025,0.012581154,0.33253084,0.065283873,0.140693625,9.53E-08,0.814530319,0.182323999,0.112186084,-0.000455775,0.302511925,34.79236364,0.011031135,34.77,34.81,0.081447964,4.63E-05,0,1,0
0,0.016246314,0.009197786,0,0.050915961,0.016174699,0.00932313,-0.011696904,0.050915937,1.11E-05,6.41E-06,-8.05E-06,3.50E-05,1.11E-05,6.41E-06,-8.05E-06,3.50E-05,-0.516642171,102.3899162,-392.71,467.79,8.127165712,0.110295266,7.690370304,8.295849911,0.111173898,0.076910026,0.010337423,0.231507684,0.084360674,0.210031828,5.74E-08,1.592241251,0.188992116,0.07031691,0.084725544,0.293490793,34.77054054,0.01769806,34.73,34.81,0.113058225,-0.000217269,0,1,0
0,0.020708543,0.007675933,0,0.066053138,0.020703863,0.007688517,-0.00206416,0.066053107,1.42E-05,5.29E-06,-1.42E-06,4.54E-05,1.42E-05,5.29E-06,-1.42E-06,4.54E-05,-1.069570136,77.43993986,-347.19,536.76,8.013933918,0.115093615,7.641879545,8.281297613,0.076534488,0.044474776,0.006319572,0.142837558,0.05928359,0.146535747,7.50E-08,1.160078961,0.190661807,0.050273488,0.117162965,0.275498438,34.73690909,0.017148838,34.71,34.77,0.063348416,-0.000139936,0,1,0
0,0.022071358,0.009267862,0.010320803,0.057108443,0.022071347,0.009267858,0.010320798,0.057108415,1.52E-05,6.38E-06,7.10E-06,3.93E-05,1.52E-05,6.38E-06,7.10E-06,3.93E-05,1.259265122,44.67101868,-320.52,190.61,7.955484632,0.054175962,7.86845752,8.095409659,0.010029074,0.014840977,0.000170928,0.058701252,0.006733407,0.027386538,1.29E-07,0.175032354,0.24038614,0.011130496,0.228786157,0.258527699,34.69279279,0.018848432,34.66,34.73,0.189937818,-0.000290804,0,1,0
0,0.039305447,0.001348007,0.031650462,0.049539854,0.039305428,0.001348006,0.031650447,0.04953983,2.70E-05,9.27E-07,2.18E-05,3.41E-05,2.70E-05,9.27E-07,2.18E-05,3.41E-05,-1.745124434,61.24135539,-324.32,171.45,7.923571945,0.077009368,7.785154438,8.114498994,0.018555822,0.01642371,0.000221186,0.060427977,0.014244864,0.036279391,8.80E-08,0.241584173,0.222462635,0.007070026,0.200965184,0.228751894,34.67881818,0.018768049,34.65,34.71,0.131221719,-8.14E-05,0,1,0
0,0.034831542,0.009599712,0,0.06054871,0.034831526,0.009599708,0,0.060548681,2.40E-05,6.61E-06,0,4.17E-05,2.40E-05,6.61E-06,0,4.17E-05,0.781866516,86.59184654,-550.07,305.19,7.681100047,0.065275349,7.456648089,7.806991932,0.012797538,0.014763288,1.84E-05,0.05934473,0.010422163,0.031702543,6.27E-08,0.200728638,0.157825081,0.01820062,0.138658155,0.199955091,34.67018018,0.012733016,34.65,34.71,0.126696833,8.42E-05,0,1,0
0,0.036923723,0.008511105,0.003440268,0.059172603,0.036900355,0.008611774,-0.006880532,0.059172575,2.54E-05,5.93E-06,-4.73E-06,4.07E-05,2.54E-05,5.93E-06,-4.73E-06,4.07E-05,-0.083193895,79.26160422,-353.03,178.51,7.385959452,0.149001337,7.075647972,7.59910172,0.017369515,0.010119495,0.004533161,0.041298473,0.013336763,0.032183689,7.65E-08,0.14715621,0.067559994,0.04938294,-0.009394951,0.138283417,34.68309091,0.015120453,34.66,34.71,0.113058225,-5.05E-06,0,1,0
0,0.040768728,0.00247181,0.030274355,0.0488518,0.040768709,0.002471809,0.030274341,0.048851777,2.81E-05,1.70E-06,2.08E-05,3.36E-05,2.81E-05,1.70E-06,2.08E-05,3.36E-05,-0.079909502,73.86050141,-640.72,286.49,6.983528653,0.106673034,6.631336269,7.302317825,0.071121324,0.06987153,0.003468434,0.224503831,0.064679515,0.175793651,4.81E-08,1.176040406,-0.103083264,0.057849378,-0.190436176,-0.010479819,34.70891892,0.016622537,34.68,34.75,0.058823529,0.000203054,0,1,0
0,0.041700708,0.000589286,0.039219051,0.044035426,0.041700689,0.000589286,0.039219032,0.044035405,2.87E-05,4.05E-07,2.70E-05,3.03E-05,2.87E-05,4.05E-07,2.70E-05,3.03E-05,0.543188242,89.78196261,-460.25,331.4,6.688434821,0.162744727,6.360318902,7.128927157,0.064675472,0.051300357,0.00134959,0.191862563,0.03918928,0.13135724,7.20E-08,0.843214621,-0.182328556,0.03992386,-0.225361299,-0.11390608,34.73872727,0.019545243,34.71,34.77,0.076879593,0.00045317,0,1,0
0,0.025322549,0.011048571,0.000688054,0.061236764,0.02524626,0.011221768,-0.013073011,0.061236735,1.74E-05,7.72E-06,-8.99E-06,4.21E-05,1.74E-05,7.72E-06,-8.99E-06,4.21E-05,0.034457014,109.1763199,-518.44,309.6,6.690661796,0.058176924,6.519468774,6.798056861,0.030092551,0.017985724,0.000363067,0.055933594,0.025015069,0.07078542,7.71E-08,0.464482106,-0.146966362,0.012058597,-0.163267341,-0.11567996,34.76045045,0.025162083,34.73,34.83,0.058823529,0.000662162,0,1,0
0,0.030721123,0.009739384,0,0.077061995,0.027204565,0.017278705,-0.028210181,0.077061958,1.87E-05,1.19E-05,-1.94E-05,5.30E-05,1.87E-05,1.19E-05,-1.94E-05,5.30E-05,0.445214932,119.9615796,-594.42,532.26,6.378407678,0.134074448,6.045925337,6.634378536,0.032984797,0.024279677,0.002796563,0.09450666,0.030781748,0.076912777,3.72E-08,0.489033414,-0.240524379,0.050326596,-0.345063998,-0.164555856,34.80636364,0.014316378,34.79,34.83,0.063348416,-4.11E-05,0,1,0
0,0.020975514,0.006022583,0,0.055044282,0.019876487,0.009009357,-0.023393809,0.055044256,1.37E-05,6.20E-06,-1.61E-05,3.79E-05,1.37E-05,6.20E-06,-1.61E-05,3.79E-05,0.732984737,91.58379042,-629.49,304.2,6.16144935,0.062965288,5.813602878,6.233785225,0.042582467,0.031717067,0.000665759,0.095658736,0.028755628,0.064746417,7.61E-08,0.339113181,-0.313430641,0.033783604,-0.388111183,-0.270388251,34.81288288,0.013910097,34.79,34.83,0.185415489,-0.000150228,0,1,0
0,0.029034458,0.009803974,0.000688054,0.057108443,0.025676682,0.016727963,-0.030962394,0.057108415,1.77E-05,1.15E-05,-2.13E-05,3.93E-05,1.77E-05,1.15E-05,-2.13E-05,3.93E-05,-2.658484163,143.394807,-976.29,431.5,5.883733002,0.159959791,5.526737993,6.170020662,0.07475578,0.026180367,0.029145402,0.128804031,0.062444579,0.139898373,5.32E-08,0.872204026,-0.425884033,0.050751193,-0.511533808,-0.368927001,34.81609091,0.015020922,34.77,34.84,0.076923077,0.000355206,0,1,0
0,0.028613697,0.010052982,0.002064161,0.052292068,0.028605909,0.010075078,-0.003440266,0.052292043,1.97E-05,6.93E-06,-2.37E-06,3.60E-05,1.97E-05,6.93E-06,-2.37E-06,3.60E-05,1.257275297,77.20755204,-296.83,321.82,5.674329609,0.074220024,5.502574155,5.758448609,0.035932005,0.020893394,0.009842749,0.100354707,0.022322553,0.06867883,5.47E-08,0.557532053,-0.447956837,0.026664122,-0.504167691,-0.412413455,34.85333333,0.017774024,34.83,34.89,0.117580554,0.000332573,0,1,0
0,0.033460884,0.012142952,0,0.057796496,0.033137078,0.013000572,-0.018577436,0.057796469,2.28E-05,8.95E-06,-1.28E-05,3.98E-05,2.28E-05,8.95E-06,-1.28E-05,3.98E-05,0.483970588,72.46969492,-308.79,223.45,5.471915878,0.074261979,5.300287097,5.606913165,0.023234488,0.024429831,0.000378584,0.078793551,0.016956471,0.05766478,7.72E-08,0.369603089,-0.49443432,0.024491503,-0.525365142,-0.463335019,34.86927928,0.017589499,34.84,34.89,0.067873303,7.27E-05,0,1,0
0,0.012051055,0.003865212,0.003440268,0.026146034,0.012051049,0.00386521,0.003440266,0.026146022,8.29E-06,2.66E-06,2.37E-06,1.80E-05,8.29E-06,2.66E-06,2.37E-06,1.80E-05,-0.771803279,56.69920272,-305.24,348.22,5.405903712,0.049793461,5.317705379,5.524232221,0.011417524,0.015575752,3.91E-05,0.047861713,0.006840283,0.028879461,1.29E-07,0.225406006,-0.501194949,0.008288705,-0.51868664,-0.490487731,34.86309091,0.02263326,34.83,34.89,0.18089316,-0.000377432,0,1,0
0,0.016615247,0.002483573,0.000688054,0.024081873,0.016599673,0.002585571,-0.006192479,0.024081862,1.14E-05,1.78E-06,-4.26E-06,1.66E-05,1.14E-05,1.78E-06,-4.26E-06,1.66E-05,-0.341578054,27.14068585,-69.36,153.47,5.188857162,0.070606408,5.082947378,5.326333952,0.000535396,0.000708829,1.90E-06,0.002794599,0.000416954,0.002891119,1.26E-07,0.029469241,-0.55352792,0.020843423,-0.584832354,-0.515189128,34.82567568,0.009455598,34.81,34.84,0.167420814,-9.34E-05,0,1,0
0,0.017037108,0.000916552,0.015137178,0.019953552,0.0170371,0.000916552,0.01513717,0.019953543,1.17E-05,6.31E-07,1.04E-05,1.37E-05,1.17E-05,6.31E-07,1.04E-05,1.37E-05,0.392245475,22.4854036,-59.31,41.76,4.992838627,0.048543891,4.909069568,5.083588743,0.000429356,0.000624613,7.44E-07,0.002359005,0.000296578,0.001755027,1.67E-07,0.012353658,-0.61041838,0.014461709,-0.632899496,-0.585321599,34.78018182,0.01902065,34.75,34.83,0.176470588,-0.000402498,0,1,0
0,0.014984795,0.005011005,0.000688054,0.065365085,0.014977013,0.005034192,-0.00206416,0.065365054,1.03E-05,3.46E-06,-1.42E-06,4.50E-05,1.03E-05,3.46E-06,-1.42E-06,4.50E-05,0.380684002,48.47305608,-229.51,263.68,4.792860985,0.081137547,4.574539974,4.915361477,0.01708517,0.01615703,6.05E-06,0.050545548,0.013740575,0.03620716,5.69E-08,0.308845661,-0.684908246,0.030202932,-0.719563636,-0.633168653,34.74963964,0.01760057,34.71,34.77,0.185415489,-0.000303089,0,1,0
0,0.01302943,0.004989311,0,0.033714623,0.01300296,0.005057876,-0.006880532,0.033714607,8.95E-06,3.48E-06,-4.73E-06,2.32E-05,8.95E-06,3.48E-06,-4.73E-06,2.32E-05,1.18395362,57.89665955,-198.95,194.06,4.462434973,0.25546466,3.311344903,4.704227335,0.084438821,0.07768843,0.00608166,0.294718838,0.072836105,0.13744368,4.94E-08,0.606210141,-0.848711685,0.136255842,-1.216125128,-0.710371359,34.74490909,0.015825495,34.71,34.77,0.171945701,-2.45E-05,0,1,0
0,0.019951996,0.003508551,0.009632749,0.033026569,0.019951986,0.003508549,0.009632745,0.033026554,1.37E-05,2.41E-06,6.63E-06,2.27E-05,1.37E-05,2.41E-06,6.63E-06,2.27E-05,-1.926105144,63.76143696,-258.98,246.14,4.637215082,0.383878269,3.054423122,5.309622916,0.195556957,0.224922301,0.005858516,0.724838447,0.1423231,0.678813086,6.28E-08,6.879249288,-0.908585402,0.1872909,-1.248885053,-0.740200956,34.75288288,0.013910097,34.73,34.77,0.099491238,0.000167076,0,1,0
0,0.013419379,0.005325467,0,0.030962409,0.013104923,0.006058146,-0.017889383,0.030962394,9.02E-06,4.17E-06,-1.23E-05,2.13E-05,9.02E-06,4.17E-06,-1.23E-05,2.13E-05,-0.367641403,82.62649261,-477.71,267.62,4.259031534,0.076866943,4.138910721,4.434851724,0.020663216,0.022412129,2.65E-05,0.06558431,0.018550364,0.077447789,6.07E-08,0.556809625,-0.843586175,0.021505307,-0.866687685,-0.795338284,34.75436364,0.016488413,34.73,34.79,0.076923077,-0.000142822,0,1,0
0,0.020776107,0.003488305,0.003440268,0.03509073,0.020776097,0.003488303,0.003440266,0.035090713,1.43E-05,2.40E-06,2.37E-06,2.41E-05,1.43E-05,2.40E-06,2.37E-06,2.41E-05,-0.061661956,82.99463622,-376.34,252.79,4.22457262,0.103688567,3.779974073,4.407416942,0.075008657,0.048862041,0.010901363,0.185452912,0.06718035,0.144783843,7.27E-08,1.003257785,-0.908006944,0.056141361,-1.023122313,-0.850689763,34.77936937,0.021780199,34.73,34.81,0.031656303,0.000466479,0,1,0
0,0.019693586,0.003088864,0.001376107,0.037842944,0.019508332,0.00409915,-0.01720133,0.037842926,1.34E-05,2.82E-06,-1.18E-05,2.60E-05,1.34E-05,2.82E-06,-1.18E-05,2.60E-05,1.013699095,71.04079174,-340.65,367.27,3.9944848,0.132806533,3.77881303,4.16172555,0.041796699,0.040790853,0.000253688,0.176363633,0.019627841,0.088784743,9.86E-08,0.765168711,-0.941595508,0.053461146,-1.025139925,-0.883613077,34.82445455,0.014115521,34.77,34.84,0.176470588,0.000273877,0,1,0
0,0.021667459,0.003963319,0,0.03509073,0.021623862,0.004194618,-0.008944692,0.035090713,1.49E-05,2.89E-06,-6.15E-06,2.41E-05,1.49E-05,2.89E-06,-6.15E-06,2.41E-05,-0.268817873,45.35247228,-273.12,200.32,4.021623736,0.034720892,3.969002991,4.101556074,0.004149262,0.006186495,9.45E-06,0.022141907,0.003208979,0.014799744,1.92E-07,0.115956625,-0.896255758,0.00559041,-0.90730196,-0.889696658,34.83711712,0.012257551,34.81,34.87,0.171945701,9.13E-05,0,1,0
0,0.021501673,0.006528259,0.005504428,0.063988978,0.021501662,0.006528256,0.005504426,0.063988947,1.48E-05,4.49E-06,3.79E-06,4.40E-05,1.48E-05,4.49E-06,3.79E-06,4.40E-05,2.264697569,78.04364476,-230.2,717.77,3.966946665,0.058058991,3.654085712,4.119338101,0.01577485,0.013144368,0.000131402,0.042817552,0.014695993,0.032895773,3.96E-08,0.24674535,-0.923491498,0.022509578,-0.961700919,-0.902031043,34.82745455,0.011942009,34.81,34.87,0.18089316,-0.000173478,0,1,0
0,0.025531923,0.003992255,0.009632749,0.048163747,0.025531911,0.003992254,0.009632745,0.048163724,1.76E-05,2.75E-06,6.63E-06,3.31E-05,1.76E-05,2.75E-06,6.63E-06,3.31E-05,-2.574095023,85.62474816,-367.08,248.82,3.834347799,0.042882938,3.750882456,3.92301134,0.00738483,0.008541012,0.000182101,0.030803809,0.003279423,0.012489912,7.19E-08,0.078349556,-0.953693731,0.007902867,-0.969813032,-0.944158001,34.8054955,0.015924299,34.77,34.84,0.067873303,-0.000234644,0,1,0
0,0.020531984,0.000514339,0.018577445,0.02545798,0.020531974,0.000514339,0.018577436,0.025457968,1.41E-05,3.54E-07,1.28E-05,1.75E-05,1.41E-05,3.54E-07,1.28E-05,1.75E-05,0.52920294,39.70231744,-96.17,69.27,3.716632491,0.026860297,3.671792702,3.764457336,0.000265202,0.000516547,4.49E-07,0.002066781,3.49E-05,0.000289812,1.59E-07,0.002988967,-0.980890229,0.007358142,-0.993081285,-0.970052487,34.79436364,0.013586576,34.75,34.81,0.176370831,3.75E-05,0,1,0
0,0.021372468,0.000250934,0.020641606,0.022705766,0.021372458,0.000250934,0.020641596,0.022705756,1.47E-05,1.73E-07,1.42E-05,1.56E-05,1.47E-05,1.73E-07,1.42E-05,1.56E-05,-0.440888009,35.16791074,-85.05,50.66,3.65129728,0.020380981,3.607099467,3.687521226,0.000543384,0.001095061,3.83E-07,0.004232257,0.000418018,0.00367043,2.27E-07,0.038021709,-0.999995781,0.005403325,-1.012044408,-0.993211999,34.78747748,0.012625476,34.77,34.81,0.180995475,-5.46E-05,0,1,0
0,0.024825967,0.00281894,0.009632749,0.045411533,0.024825956,0.002818938,0.009632745,0.045411511,1.71E-05,1.94E-06,6.63E-06,3.12E-05,1.71E-05,1.94E-06,6.63E-06,3.12E-05,0.401855204,47.17412016,-180.73,276.6,3.56291834,0.033254463,3.454306261,3.608258564,0.002050112,0.002603049,3.08E-07,0.008309917,0.001682044,0.006252201,7.76E-08,0.037491445,-1.027216728,0.011240101,-1.043610859,-1.012311135,34.77145455,0.0151859,34.73,34.79,0.171945701,-0.000116854,0,1,0
0,0.034523319,0.003938166,0.014449124,0.059860657,0.034523303,0.003938164,0.014449117,0.059860628,2.38E-05,2.71E-06,9.94E-06,4.12E-05,2.38E-05,2.71E-06,9.94E-06,4.12E-05,-0.037467496,95.95043765,-738.58,297.22,3.543599136,0.019506186,3.511060739,3.59027506,0.0023399,0.002437364,2.88E-05,0.009233166,0.001785458,0.007936258,9.23E-08,0.056687386,-1.033126694,0.004504594,-1.041023493,-1.02665997,34.78963964,0.02370722,34.75,34.83,0.189937818,0.000600913,0,1,0
0,0.021777984,0.008921696,0.005504428,0.0488518,0.021777973,0.008921692,0.005504426,0.048851777,1.50E-05,6.14E-06,3.79E-06,3.36E-05,1.50E-05,6.14E-06,3.79E-06,3.36E-05,0.047070136,172.0173746,-797.02,562.55,3.58464634,0.047601602,3.488746461,3.648967586,0.005393854,0.007877527,0.000111301,0.028015749,0.00408533,0.022568483,1.36E-07,0.216104865,-1.024120784,0.013080741,-1.042007088,-1.00564444,34.82745455,0.017499941,34.81,34.87,0.126696833,0.000328382,0,1,0
0,0.01725576,0.005613574,0.000688054,0.040595158,0.017151572,0.005924249,-0.011008851,0.040595139,1.18E-05,4.08E-06,-7.57E-06,2.79E-05,1.18E-05,4.08E-06,-7.57E-06,2.79E-05,-0.516794799,68.62116627,-207.91,274.52,3.600299294,0.05376824,3.485255168,3.710692981,0.012055172,0.014276509,6.67E-05,0.052555139,0.009250218,0.0542742,8.72E-08,0.55988084,-1.02633508,0.012299566,-1.041970022,-1.009990517,34.87900901,0.021517014,34.83,34.91,0.058790277,0.000445595,0,1,0
0,0.01770726,0.00071928,0.01169691,0.020641606,0.017707251,0.000719279,0.011696904,0.020641596,1.22E-05,4.95E-07,8.05E-06,1.42E-05,1.22E-05,4.95E-07,8.05E-06,1.42E-05,0.453093891,33.21153627,-168.12,73.49,3.538061435,0.025262513,3.507267839,3.59093234,0.000957346,0.001517919,2.16E-06,0.005583898,0.000899242,0.005950806,1.59E-07,0.060329095,-1.033381756,0.007798555,-1.043714739,-1.016277009,34.88279279,0.012241649,34.87,34.91,0.171945701,-2.04E-05,0,1,0
0,0.015532575,0.005365795,0,0.043347372,0.015471857,0.005538414,-0.006880532,0.043347352,1.06E-05,3.81E-06,-4.73E-06,2.98E-05,1.06E-05,3.81E-06,-4.73E-06,2.98E-05,-1.0410684,76.07498976,-374.21,575.93,3.476398593,0.019173128,3.403316653,3.511110036,0.001729689,0.002611056,7.02E-06,0.010880328,0.001502236,0.011422228,1.22E-07,0.11671096,-1.052093405,0.005627772,-1.060615984,-1.043831498,34.86481818,0.020168915,34.83,34.89,0.054267948,-0.000347722,0,1,0
0,0.038597156,0.009092227,0.006880535,0.053668175,0.038597138,0.009092223,0.006880532,0.05366815,2.66E-05,6.26E-06,4.73E-06,3.69E-05,2.66E-05,6.26E-06,4.73E-06,3.69E-05,1.067087104,59.56749902,-250.49,260.15,3.417666944,0.046554963,3.341290821,3.52961136,0.004292404,0.004370091,0.000132556,0.018524529,0.002972347,0.013046773,6.34E-08,0.09763061,-1.071503406,0.009918755,-1.089036746,-1.060180181,34.87135135,0.018428654,34.84,34.91,0.190045249,6.12E-05,0,1,0
0,0.035792015,0.010957284,0.000688054,0.052292068,0.035609866,0.011535446,-0.038530979,0.052292043,2.45E-05,7.94E-06,-2.65E-05,3.60E-05,2.45E-05,7.94E-06,-2.65E-05,3.60E-05,-0.036459276,70.86109141,-291.9,230.58,3.379923251,0.040091161,3.301017054,3.477184429,0.010250685,0.012735311,1.44E-05,0.040986881,0.007879499,0.03508712,1.09E-07,0.23097274,-1.088442556,0.005133845,-1.095456073,-1.0810202,34.89436364,0.019330958,34.87,34.93,0.081447964,0.000462367,0,1,0
0,0.039726733,0.002033637,0.02339382,0.050227907,0.039726715,0.002033637,0.023393809,0.050227884,2.73E-05,1.40E-06,1.61E-05,3.46E-05,2.73E-05,1.40E-06,1.61E-05,3.46E-05,-0.009061617,68.03217669,-522.93,216.5,3.322027299,0.026336382,3.275163333,3.359648816,0.000661523,0.000839345,1.01E-05,0.003174244,0.000508265,0.003430112,1.56E-07,0.034491002,-1.095855798,0.00713341,-1.108492279,-1.087493245,34.91630631,0.014201125,34.89,34.95,0.189937818,0.000223587,0,1,0
0,0.032494962,0.011294719,0.000688054,0.052980121,0.032331495,0.011754427,-0.024081862,0.052980096,2.22E-05,8.09E-06,-1.66E-05,3.65E-05,2.22E-05,8.09E-06,-1.66E-05,3.65E-05,0.035531674,79.65084339,-451.38,371.61,3.266686266,0.022949941,3.227426571,3.344922393,0.005192817,0.007152112,9.59E-07,0.027252475,0.004005873,0.022359544,7.51E-08,0.191474855,-1.116382402,0.003756095,-1.120934501,-1.108600508,34.94872727,0.016901269,34.91,34.99,0.081447964,0.000269865,0,1,0
0,0.029176116,0.011215818,0.006880535,0.042659319,0.029176102,0.011215813,0.006880532,0.042659298,2.01E-05,7.72E-06,4.73E-06,2.94E-05,2.01E-05,7.72E-06,4.73E-06,2.94E-05,-1.174053137,60.06598631,-320.39,195.96,3.24113799,0.028595058,3.196367014,3.291843056,0.003655904,0.00508236,6.32E-06,0.015077526,0.00295388,0.013161967,8.49E-08,0.117133983,-1.122261412,0.003284398,-1.126722297,-1.117264111,34.96117117,0.014503106,34.93,35,0.108535896,-0.000187961,0,1,0
0,0.033646907,0.006239541,0.017201338,0.067429245,0.033646891,0.006239538,0.01720133,0.067429213,2.32E-05,4.29E-06,1.18E-05,4.64E-05,2.32E-05,4.29E-06,1.18E-05,4.64E-05,0.34178733,57.35516511,-398.04,237.81,3.140219813,0.039900951,3.083586765,3.225370487,0.002947963,0.002427062,8.35E-05,0.008623571,0.002221204,0.009037324,8.92E-08,0.064880039,-1.150940733,0.011610166,-1.160455824,-1.121355016,34.96381818,0.017001701,34.93,34.99,0.176470588,0.00026184,0,1,0
0,0.032939493,0.01106609,0.001376107,0.087382798,0.03270313,0.01174618,-0.059172575,0.087382756,2.25E-05,8.08E-06,-4.07E-05,6.01E-05,2.25E-05,8.08E-06,-4.07E-05,6.01E-05,-2.561526286,169.9737856,-597.33,447.69,10.5060448,0.247765915,10.12387322,11.33787301,0.132293084,0.069759402,0.0237461,0.369257822,0.126487032,0.296862432,6.92E-08,1.643333575,0.858928718,0.013044393,0.806162236,0.8778406,34.5063964,0.028562963,34.45,34.55,0.063312606,-0.000781502,0,0,1
0,0.040961757,0.006663699,0.010320803,0.087382798,0.040961737,0.006663696,0.010320798,0.087382756,2.82E-05,4.58E-06,7.10E-06,6.01E-05,2.82E-05,4.58E-06,7.10E-06,6.01E-05,4.36449095,154.3691803,-706.84,555.9,11.09310353,0.225189926,10.76305636,11.88686313,0.139542106,0.093636255,0.023823499,0.409883017,0.092390493,0.220337334,5.83E-08,1.636947914,1.021206787,0.073010772,0.879694396,1.104181312,34.45127273,0.022767964,34.41,34.49,0.067873303,-0.000500688,0,0,1
0,0.037207039,0.010497426,0.001376107,0.087382798,0.037203908,0.01050845,-0.001376106,0.087382756,2.56E-05,7.23E-06,-9.47E-07,6.01E-05,2.56E-05,7.23E-06,-9.47E-07,6.01E-05,1.614488412,202.8736903,-704.59,667.78,11.80019971,0.272410787,11.2524083,12.3512218,0.286142232,0.085997834,0.164664463,0.507300054,0.22652308,0.456992626,5.84E-08,2.260603726,1.081137436,0.039606744,1.015369823,1.16069632,34.39900901,0.035563798,34.33,34.45,0.113058225,-0.000937785,0,0,1
0,0.04067377,0.007570409,0.003440268,0.087382798,0.040665968,0.007612105,-0.003440266,0.087382756,2.80E-05,5.24E-06,-2.37E-06,6.01E-05,2.80E-05,5.24E-06,-2.37E-06,6.01E-05,-4.715045249,209.4687185,-727.81,740.3,12.2989256,0.223739631,11.64988821,12.71259474,0.257607206,0.080858591,0.087211342,0.372322919,0.192828206,0.377802606,4.90E-08,2.72757432,1.253997913,0.045755857,1.165971462,1.317612274,34.30109091,0.029583332,34.25,34.37,0.076923077,-0.000742601,0,0,1
0,0.039862789,0.008166854,0,0.087382798,0.03986277,0.00816685,0,0.087382756,2.74E-05,5.62E-06,0,6.01E-05,2.74E-05,5.62E-06,0,6.01E-05,-0.088332391,173.528859,-584.7,415.75,12.75036584,0.285066157,12.20633588,13.42094259,0.229484063,0.127094901,0.046193995,0.506216741,0.1778639,0.39629056,8.00E-08,2.13606217,1.413239334,0.089136038,1.274728357,1.5599617,34.21153153,0.030966364,34.16,34.27,0.113058225,-0.00082643,0,0,1
0,0.039264973,0.008210757,0.005504428,0.086006691,0.039264954,0.008210753,0.005504426,0.08600665,2.70E-05,5.65E-06,3.79E-06,5.92E-05,2.70E-05,5.65E-06,3.79E-06,5.92E-05,2.84655543,154.0297511,-533.65,462.91,13.06638253,0.17574041,12.60959822,13.46750334,0.191318552,0.109533914,0.038897119,0.435172394,0.158261389,0.254019296,6.03E-08,1.091056202,1.542936407,0.076686826,1.327296372,1.612802838,34.12809091,0.029802241,34.07,34.18,0.081447964,-0.000817754,0,0,1
0,0.036790627,0.008108804,0.010320803,0.087382798,0.036751692,0.008283398,-0.01720133,0.087382756,2.53E-05,5.70E-06,-1.18E-05,6.01E-05,2.53E-05,5.70E-06,-1.18E-05,6.01E-05,-3.019270362,110.0181606,-417.93,397.16,13.4256172,0.30550261,12.40769751,13.94829366,0.265805565,0.146174221,0.055212317,0.547124027,0.189221762,0.431333015,3.99E-08,3.484301924,1.572963298,0.204937429,1.275486047,1.813922097,34.05,0.029347253,33.99,34.09,0.108597285,-0.000780098,0,0,1
0,0.038932621,0.006151213,0.009632749,0.082566423,0.038932603,0.006151211,0.009632745,0.082566384,2.68E-05,4.23E-06,6.63E-06,5.68E-05,2.68E-05,4.23E-06,6.63E-06,5.68E-05,-0.924437535,131.5124904,-480.71,482.95,13.69370857,0.166145415,13.35279682,14.14419444,0.157064103,0.076662529,0.029349544,0.310633691,0.113763876,0.264235357,5.60E-08,1.560556727,1.759375098,0.094406362,1.616166065,1.9040146,33.96527273,0.021307664,33.93,34,0.063312606,-0.000580303,0,0,1
0,0.0372911,0.009952843,0.001376107,0.087382798,0.037136971,0.010513287,-0.035778766,0.087382756,2.56E-05,7.23E-06,-2.46E-05,6.01E-05,2.56E-05,7.23E-06,-2.46E-05,6.01E-05,0.099615385,178.4168565,-726.74,721.52,13.96114795,0.185043642,13.39330049,14.33361702,0.290306404,0.155901458,0.041486699,0.543079124,0.227247365,0.467334371,4.18E-08,3.023083165,1.704109184,0.139425609,1.479868479,1.891422023,33.84945946,0.04340959,33.79,33.93,0.126696833,-0.001251843,0,0,1
0,0.040773974,0.0049766,0.012384963,0.076373941,0.040773955,0.004976598,0.012384958,0.076373905,2.81E-05,3.42E-06,8.52E-06,5.25E-05,2.81E-05,3.42E-06,8.52E-06,5.25E-05,2.494923686,87.10381997,-437.74,374.98,14.23935374,0.270861503,13.11246274,14.7841438,0.586885457,0.240278737,0.193345378,1.003275752,0.468585431,0.821738414,3.07E-08,6.451148325,1.488079795,0.217956995,1.202015465,1.828726006,33.73027273,0.034310324,33.68,33.79,0.076879593,-0.000893492,0,0,1
0,0.038858679,0.005069706,0.002064161,0.084630584,0.038843094,0.005187626,-0.006880532,0.084630543,2.67E-05,3.57E-06,-4.73E-06,5.82E-05,2.67E-05,3.57E-06,-4.73E-06,5.82E-05,1.236510181,165.4892483,-771.55,625.6,14.67826731,0.323207996,13.7406276,15.15595571,0.28360932,0.14799702,0.008957575,0.490891182,0.187060523,0.355312693,4.29E-08,2.427600934,1.918891688,0.201808525,1.629938604,2.299124421,33.64054054,0.035636752,33.57,33.71,0.108597285,-0.001057125,0,0,1
0,0.038495972,0.004044625,0.017889392,0.068117299,0.038495954,0.004044624,0.017889383,0.068117267,2.65E-05,2.78E-06,1.23E-05,4.69E-05,2.65E-05,2.78E-06,1.23E-05,4.69E-05,-0.759044118,80.57957148,-319.43,321.1,15.17544818,0.249570391,14.66766336,15.67939361,0.201971943,0.110351728,0.0056163,0.409517039,0.166758948,0.337152601,5.28E-08,1.688044044,2.144938462,0.105639785,1.98802801,2.30157835,33.51290909,0.023868787,33.47,33.57,0.090497738,-0.000571648,0,0,1
0,0.035031576,0.002882561,0.021329659,0.041971265,0.035031559,0.00288256,0.021329649,0.041971245,2.41E-05,1.98E-06,1.47E-05,2.89E-05,2.41E-05,1.98E-06,1.47E-05,2.89E-05,-0.828128886,39.33936877,-223.68,125.12,15.42387134,0.125150729,15.1725018,15.63872061,0.186021412,0.099135708,0.015676175,0.327749516,0.1355485,0.316837009,1.13E-07,1.528006711,2.232858931,0.101133089,2.116836186,2.4166245,33.46693694,0.021510224,33.41,33.49,0.113058225,-0.000554932,0,0,1
0,0.037575973,0.003721716,0.018577445,0.050227907,0.037575955,0.003721714,0.018577436,0.050227884,2.59E-05,2.56E-06,1.28E-05,3.46E-05,2.59E-05,2.56E-06,1.28E-05,3.46E-05,-0.593263575,130.6396142,-497.14,354.09,15.27276887,0.426725191,13.73394014,15.8013887,1.037978616,0.492164619,0.042277511,1.73995872,0.819015691,1.507977623,6.11E-08,8.31246976,1.337280628,0.51051672,0.705476757,2.345413286,33.37436364,0.031145619,33.33,33.43,0.099547511,-0.000812569,0,0,1
0,0.039790485,0.002479472,0.02545798,0.050915961,0.039790466,0.002479471,0.025457968,0.050915937,2.74E-05,1.71E-06,1.75E-05,3.50E-05,2.74E-05,1.71E-06,1.75E-05,3.50E-05,1.460989259,70.34440386,-332.71,280.5,15.63874105,0.201800037,14.98538098,15.83492542,0.31432061,0.200519964,0.075886227,0.691517062,0.265794008,0.413757288,4.17E-08,2.80722416,2.166869093,0.195392517,1.814984617,2.430301213,33.31414414,0.021328341,33.27,33.34,0.09044658,-0.000551071,0,0,1
0,0.034726466,0.008367916,0.004816375,0.087382798,0.03472645,0.008367912,0.004816372,0.087382756,2.39E-05,5.76E-06,3.31E-06,6.01E-05,2.39E-05,5.76E-06,3.31E-06,6.01E-05,-0.485633484,93.85306755,-456.36,452.32,15.58461374,0.265727118,14.35813558,15.93144442,0.587568535,0.330685565,0.050742279,1.041711815,0.417229186,0.84750018,4.73E-08,4.757399513,1.878136559,0.333105085,1.521584663,2.452050901,33.27018018,0.01599448,33.25,33.31,0.122171946,-0.000122148,0,0,1
0,0.038392453,0.002871084,0.02545798,0.048163747,0.038392434,0.002871082,0.025457968,0.048163724,2.64E-05,1.98E-06,1.75E-05,3.31E-05,2.64E-05,1.98E-06,1.75E-05,3.31E-05,-0.421622386,99.46066629,-446.27,336.63,15.50774768,0.358710513,14.22349093,15.9162064,0.688687019,0.232216249,0.161735694,1.123739075,0.606465689,0.93639259,4.35E-08,4.422416335,1.75465171,0.257600276,1.394701091,2.369785785,33.26890909,0.012887306,33.25,33.29,0.067834935,-0.000150035,0,0,1
0,0.038347309,0.004312257,0.020641606,0.04678764,0.038347291,0.004312255,0.020641596,0.046787618,2.64E-05,2.97E-06,1.42E-05,3.22E-05,2.64E-05,2.97E-06,1.42E-05,3.22E-05,3.260797511,98.30362728,-474.89,301.24,15.42124289,0.262572522,14.45691148,15.80068186,0.512902805,0.291418216,0.126856366,1.127698474,0.332633466,0.561035749,4.20E-08,2.619700038,1.905403593,0.280171305,1.396743047,2.21090825,33.22693694,0.027403978,33.18,33.27,0.067873303,-0.000711829,0,0,1
0,0.040304058,0.001409514,0.018577445,0.048163747,0.040304039,0.001409514,0.018577436,0.048163724,2.77E-05,9.70E-07,1.28E-05,3.31E-05,2.77E-05,9.70E-07,1.28E-05,3.31E-05,-2.285752262,105.72877,-585.71,351.41,14.77283353,0.738308673,13.34625655,15.72201391,0.737396248,0.269266787,0.12381273,1.190248373,0.545592712,0.936809991,3.53E-08,6.059918065,1.492355066,0.246057459,1.194011323,1.993613062,33.16836364,0.017452651,33.13,33.21,0.063348416,-0.0002622,0,0,1
0,0.039496605,0.002115608,0.021329659,0.050915961,0.039496586,0.002115607,0.021329649,0.050915937,2.72E-05,1.46E-06,1.47E-05,3.50E-05,2.72E-05,1.46E-06,1.47E-05,3.50E-05,-0.63557377,118.9339385,-582.37,485.96,14.92500381,0.525653352,13.4974846,15.69453469,0.860388118,0.385308682,0.151910522,1.450111297,0.708472512,1.111750666,4.17E-08,5.672428791,1.413968928,0.414721563,0.907932685,2.044839781,33.15630631,0.010477598,33.13,33.18,0.072357264,-0.000168041,0,0,1
0,0.035819257,0.00631727,0.003440268,0.071557567,0.035758529,0.006652322,-0.026834075,0.071557533,2.46E-05,4.58E-06,-1.85E-05,4.92E-05,2.46E-05,4.58E-06,-1.85E-05,4.92E-05,-1.102449095,86.94397561,-367.54,492.57,14.8260294,0.140547138,14.56738715,15.25734944,0.168992281,0.169433697,0.027290351,0.761551476,0.086581323,0.215111094,7.89E-08,1.807767832,2.076302839,0.147795879,1.541410633,2.227948671,33.09781818,0.025739316,33.05,33.15,0.054298643,-0.000727543,0,0,1
0,0.036244231,0.008348093,0,0.088070851,0.035923538,0.009634992,-0.088070809,0.087382756,2.47E-05,6.63E-06,-6.06E-05,6.01E-05,2.47E-05,6.63E-06,-6.06E-05,6.01E-05,1.644188807,87.54024585,-289.24,410.75,14.54555432,0.166438852,13.94650787,14.79322526,0.25707207,0.098862058,0.099149134,0.42958254,0.199675038,0.355282445,4.58E-08,3.080991206,1.906448853,0.084206178,1.778467282,2.122794886,33.04567568,0.022764823,33,33.09,0.117580554,-0.000493155,0,0,1
0,0.031314997,0.006063087,0.013073017,0.052292068,0.031314982,0.006063084,0.013073011,0.052292043,2.15E-05,4.17E-06,8.99E-06,3.60E-05,2.15E-05,4.17E-06,8.99E-06,3.60E-05,-2.340113122,98.52855342,-753.89,279.7,14.52439315,0.132993522,13.9521309,14.74985688,0.120674055,0.078753111,0.015813754,0.278493769,0.093685235,0.212510385,7.29E-08,1.618483039,2.037543466,0.087595377,1.898686261,2.149511875,33.022,0.021775716,32.99,33.05,0.153846154,0.000323873,0,0,1
0,0.035068183,0.008133404,0.001376107,0.087382798,0.034995085,0.008442305,-0.026146022,0.087382756,2.41E-05,5.81E-06,-1.80E-05,6.01E-05,2.41E-05,5.81E-06,-1.80E-05,6.01E-05,0.329027699,173.1245476,-745.34,544.99,14.29402577,0.251051706,13.67744838,14.84322025,0.160524725,0.092412174,0.0282039,0.389439507,0.11818005,0.350199631,6.12E-08,2.260508229,1.930433158,0.077614291,1.8012202,2.050564527,33.03864865,0.009908272,33.03,33.05,0.072357264,6.60E-05,0,0,1
0,0.017201338,0.004227804,0.008256642,0.026146034,0.01720133,0.004227802,0.008256638,0.026146022,1.18E-05,2.91E-06,5.68E-06,1.80E-05,1.18E-05,2.91E-06,5.68E-06,1.80E-05,-0.422063313,67.41462107,-590.54,315.53,3.656866074,0.070586503,3.591990919,3.877679725,0.010686042,0.016395385,9.51E-05,0.064231824,0.008728605,0.035148644,1.19E-07,0.219328915,-1.008475721,0.006682644,-1.017638664,-0.998737585,34.99297297,0.010871452,34.97,35.03,0.167326173,-3.95E-06,1,0,0
0,0.02312607,0.001060017,0.016513285,0.024769927,0.02312606,0.001060017,0.016513277,0.024769915,1.59E-05,7.29E-07,1.14E-05,1.70E-05,1.59E-05,7.29E-07,1.14E-05,1.70E-05,0.456527149,17.41024636,-65.5,41.89,3.632617391,0.115109618,3.548078219,3.982899776,0.024445417,0.038382857,0.000256708,0.139355708,0.021728214,0.060672901,1.09E-07,0.402777649,-1.029481771,0.007300118,-1.04479632,-1.018176594,34.99063636,0.009655641,34.97,35,0.176470588,-7.43E-05,1,0,0
0,0.02991554,0.004602392,0.009632749,0.053668175,0.029915526,0.004602389,0.009632745,0.05366815,2.06E-05,3.17E-06,6.63E-06,3.69E-05,2.06E-05,3.17E-06,6.63E-06,3.69E-05,-0.007173544,149.6007748,-783.79,559.04,5.086524973,0.840365752,3.754949919,7.06898281,0.143384873,0.118924019,0.011274607,0.45013267,0.13424157,0.32742128,5.84E-08,1.553262769,-0.72592342,0.16769018,-1.02632587,-0.452989867,34.98963964,0.015991435,34.97,35.03,0.063312606,0.000278168,1,0,0
0,0.025606644,0.001178579,0.016513285,0.030274355,0.025606631,0.001178578,0.016513277,0.030274341,1.76E-05,8.11E-07,1.14E-05,2.08E-05,1.76E-05,8.11E-07,1.14E-05,2.08E-05,-0.176623303,31.86321938,-152.47,98.78,7.127645393,0.54984485,6.231386835,8.220470808,0.19454755,0.09918912,0.05451754,0.410175172,0.130435942,0.356032331,4.90E-08,2.268305383,-0.18462097,0.133521588,-0.447383169,0.0287372,34.99545455,0.009499891,34.97,35.03,0.095022624,-4.36E-05,1,0,0
0,0.020833639,0.012409086,0,0.059860657,0.02070146,0.012628337,-0.010320798,0.059860628,1.42E-05,8.69E-06,-7.10E-06,4.12E-05,1.42E-05,8.69E-06,-7.10E-06,4.12E-05,0.15460147,105.9442092,-686.21,483.51,7.543569845,0.18205316,7.303658907,8.075584931,0.074484676,0.054548668,0.012829615,0.224443053,0.05261542,0.179750588,5.55E-08,1.245290402,0.056222426,0.022038323,0.022945348,0.090875398,34.99144144,0.013875044,34.95,35.03,0.081401922,-6.11E-05,1,0,0
0,0.015439952,0.007167063,0,0.031650462,0.015422821,0.007203834,-0.007568585,0.031650447,1.06E-05,4.96E-06,-5.21E-06,2.18E-05,1.06E-05,4.96E-06,-5.21E-06,2.18E-05,-0.060469457,77.65975208,-587.72,300.81,7.289832692,0.174807233,6.952165337,7.595580552,0.02845839,0.021033444,0.001567699,0.076224101,0.017821638,0.062847142,5.83E-08,0.491117008,0.028585346,0.040731153,-0.042746127,0.079874302,35.01145455,0.020486641,34.97,35.05,0.081447964,0.000388973,1,0,0
0,0.02676248,0.001478978,0.017889392,0.029586302,0.026762467,0.001478977,0.017889383,0.029586288,1.84E-05,1.02E-06,1.23E-05,2.04E-05,1.84E-05,1.02E-06,1.23E-05,2.04E-05,-0.212562217,31.01512391,-166.91,114.78,6.755568753,0.169078455,6.470032529,7.110571363,0.015313115,0.015398921,0.000319518,0.061854318,0.020554744,0.073078245,1.15E-07,0.48815951,-0.113324213,0.040376065,-0.179765786,-0.043977824,35.02207207,0.019595785,34.99,35.05,0.190045249,-0.000371007,1,0,0
0,0.023270842,0.006967539,0.000688054,0.050915961,0.023216347,0.007146982,-0.022017702,0.050915937,1.60E-05,4.92E-06,-1.51E-05,3.50E-05,1.60E-05,4.92E-06,-1.51E-05,3.50E-05,0.752521198,111.5930699,-590.66,385.94,6.624399675,0.108717655,6.458795674,6.876956926,0.03331067,0.029726,0.001354376,0.117971533,0.017907851,0.054342305,1.38E-07,0.400154165,-0.169615382,0.013798189,-0.201747688,-0.151120118,34.99490909,0.006841777,34.97,35,0.076879593,-6.49E-06,1,0,0
0,0.024987862,0.003484144,0.015137178,0.028210195,0.024987851,0.003484142,0.01513717,0.028210181,1.72E-05,2.40E-06,1.04E-05,1.94E-05,1.72E-05,2.40E-06,1.04E-05,1.94E-05,-0.368659502,25.06340456,-72.92,82.68,6.151759502,0.141588026,5.975172104,6.45212193,0.004088543,0.005932303,3.34E-05,0.017937772,0.002868039,0.014633635,8.05E-08,0.133319877,-0.277492149,0.038027726,-0.329338791,-0.203320824,34.98621622,0.012233027,34.95,35,0.176470588,-0.000125219,1,0,0
0,0.027913982,0.001394445,0.022705766,0.030962409,0.027913968,0.001394444,0.022705756,0.030962394,1.92E-05,9.59E-07,1.56E-05,2.13E-05,1.92E-05,9.59E-07,1.56E-05,2.13E-05,-0.185483324,25.49828069,-74.14,66.83,5.844257334,0.115236993,5.669392809,6.053329059,0.005509147,0.007297214,0.000134294,0.028918025,0.003409249,0.016349733,1.18E-07,0.142945101,-0.368251603,0.028460352,-0.417662434,-0.329692231,34.96854545,0.018431019,34.93,34.99,0.185415489,-0.000355071,1,0,0
0,0.024928708,0.004950977,0.01376107,0.030962409,0.024928697,0.004950975,0.013761064,0.030962394,1.72E-05,3.41E-06,9.47E-06,2.13E-05,1.72E-05,3.41E-06,9.47E-06,2.13E-05,-0.155390271,111.1386202,-812.17,498.47,5.584162755,0.07381556,5.46059974,5.731822144,0.016381874,0.015696338,0.000119434,0.049066252,0.012736504,0.047976141,8.48E-08,0.425797053,-0.454673887,0.019032658,-0.479385118,-0.418425105,34.9481982,0.012169834,34.93,34.97,0.067873303,-0.000192524,1,0,0
0,0.0227836,0.005800906,0.011008856,0.029586302,0.02278359,0.005800903,0.011008851,0.029586288,1.57E-05,3.99E-06,7.57E-06,2.04E-05,1.57E-05,3.99E-06,7.57E-06,2.04E-05,0.793947964,109.5192159,-750.98,410.61,5.356271561,0.056901908,5.259253245,5.455408451,0.005228144,0.0051908,0.000150507,0.018576192,0.005050135,0.019234141,1.36E-07,0.149455507,-0.509528139,0.018059253,-0.546984372,-0.479679302,34.92781818,0.011231597,34.91,34.95,0.081447964,-5.99E-05,1,0,0
0,0.027606202,0.004774877,0.000688054,0.054356228,0.027599962,0.004810737,-0.002752213,0.054356203,1.90E-05,3.31E-06,-1.89E-06,3.74E-05,1.90E-05,3.31E-06,-1.89E-06,3.74E-05,-3.025404183,44.98195792,-213.7,254.38,5.363936217,0.134519228,5.160985303,5.65238122,0.038330227,0.032501338,0.000902721,0.112062496,0.031576814,0.072218876,7.20E-08,0.302779717,-0.540367912,0.012353298,-0.559177769,-0.518856026,34.90567568,0.01727476,34.87,34.93,0.094968909,-0.000254826,1,0,0