,net_acc_mean,net_acc_std,net_acc_min,net_acc_max,ACC_x_mean,ACC_x_std,ACC_x_min,ACC_x_max,ACC_y_mean,ACC_y_std,ACC_y_min,ACC_y_max,ACC_z_mean,ACC_z_std,ACC_z_min,ACC_z_max,BVP_mean,BVP_std,BVP_min,BVP_max,EDA_mean,EDA_std,EDA_min,EDA_max,EDA_phasic_mean,EDA_phasic_std,EDA_phasic_min,EDA_phasic_max,EDA_smna_mean,EDA_smna_std,EDA_smna_min,EDA_smna_max,EDA_tonic_mean,EDA_tonic_std,EDA_tonic_min,EDA_tonic_max,TEMP_mean,TEMP_std,TEMP_min,TEMP_max,BVP_peak_freq,TEMP_slope,0,1,2
0,0.019370575,0.004849418,0.004128321,0.042659319,-0.019370566,0.004849415,-0.042659298,-0.004128319,-1.33E-05,3.34E-06,-2.94E-05,-2.84E-06,-1.33E-05,3.34E-06,-2.94E-05,-2.84E-06,-1.487958145,48.34781131,-210.57,170.49,0.291447804,0.005220055,0.284496127,0.3127312,1.312448054,1.658770639,0.257404579,8.212351417,0.493332466,0.923604615,4.37E-08,4.427639384,-2.218745716,1.561566664,-8.262866458,-1.346669558,32.02171171,0.017025359,31.99,32.05,0.158371041,5.41E-05,0,1,0
0,0.02944153,0.005520791,0.015825231,0.044723479,-0.029441516,0.005520788,-0.044723458,-0.015825224,-2.03E-05,3.80E-06,-3.08E-05,-1.09E-05,-2.03E-05,3.80E-06,-3.08E-05,-1.09E-05,0.737693612,42.89126048,-117.63,161.67,0.28727428,0.002162408,0.282285772,0.294119084,0.458065951,0.115846121,0.253620695,0.674513529,0.328116343,0.604608553,7.60E-08,2.662022707,-1.530118518,0.127756576,-1.734695499,-1.384215847,32.07436364,0.014367088,32.05,32.09,0.149236857,0.000207921,0,1,0
0,0.031522814,0.002930295,0.02339382,0.038530997,-0.031522799,0.002930293,-0.038530979,-0.023393809,-2.17E-05,2.02E-06,-2.65E-05,-1.61E-05,-2.17E-05,2.02E-06,-2.65E-05,-1.61E-05,0.582669683,30.81579758,-83.84,61.43,0.287208309,0.001290067,0.283112023,0.290593747,0.314547904,0.056544289,0.191827465,0.448431446,0.241055601,0.451017794,1.02E-07,1.897832153,-1.388829169,0.029129683,-1.432060671,-1.347581957,32.09216216,0.013517117,32.07,32.13,0.140271493,-6.56E-05,0,1,0
0,0.031529956,0.006898543,0,0.050227907,-0.031522166,0.006933978,-0.050227884,0.003440266,-2.17E-05,4.77E-06,-3.46E-05,2.37E-06,-2.17E-05,4.77E-06,-3.46E-05,2.37E-06,0.613154324,36.66416035,-155.15,174.4,0.285591101,0.001843038,0.28058383,0.291340991,0.494415568,0.207545605,0.213048706,0.963788095,0.396864216,0.747730403,3.84E-08,3.116425619,-1.632549764,0.221052879,-2.006640666,-1.412827171,32.08854545,0.01197242,32.07,32.11,0.144714528,-0.000177445,0,1,0
0,0.026690094,0.008404127,0,0.053668175,-0.026683855,0.008423873,-0.05366815,0.002752213,-1.84E-05,5.80E-06,-3.69E-05,1.89E-06,-1.84E-05,5.80E-06,-3.69E-05,1.89E-06,-1.572121041,50.80797175,-240,254.02,0.282139326,0.00180885,0.279000214,0.287808195,0.343987531,0.223357452,0.074027639,0.726716711,0.240619527,0.489424058,9.91E-08,2.166093593,-1.619063245,0.213280112,-2.006593256,-1.393678589,32.10207207,0.011159541,32.09,32.13,0.153846154,0.000123903,0,1,0
0,0.030385658,0.003292141,0.016513285,0.044723479,-0.030385643,0.00329214,-0.044723458,-0.016513277,-2.09E-05,2.27E-06,-3.08E-05,-1.14E-05,-2.09E-05,2.27E-06,-3.08E-05,-1.14E-05,2.504276018,55.55606075,-156.15,256.61,0.282964032,0.01029433,0.275989936,0.346928574,2.054637974,2.365060222,0.121135362,6.979483723,2.060546083,4.87764684,1.15E-08,40.07185708,-3.296876221,2.191604217,-7.817064665,-1.50859712,32.10181818,0.017330048,32.07,32.13,0.135746606,-0.000263733,0,1,0
0,0.025232261,0.005111071,0.002752214,0.039219051,-0.025226023,0.005141713,-0.039219032,0.002752213,-1.74E-05,3.54E-06,-2.70E-05,1.89E-06,-1.74E-05,3.54E-06,-2.70E-05,1.89E-06,-1.640746184,38.21100962,-149.98,103.78,0.277841286,0.011095109,0.25755895,0.330991601,3.820607553,1.844142849,1.742051843,7.127862229,2.623583285,3.908078885,1.85E-08,31.98987901,-5.265458011,1.552920156,-7.881880838,-3.674357274,32.07918919,0.013631914,32.05,32.11,0.144714528,-0.000271323,0,1,0
0,0.020531081,0.001697284,0.016513285,0.02545798,-0.020531072,0.001697283,-0.025457968,-0.016513277,-1.41E-05,1.17E-06,-1.75E-05,-1.14E-05,-1.41E-05,1.17E-06,-1.75E-05,-1.14E-05,-0.183467195,26.85057213,-62.59,41.53,0.268794431,0.002089488,0.263537355,0.272008564,0.732396727,0.603724064,0.162247984,2.158159116,0.417840413,0.853345007,8.12E-08,4.647194034,-2.536392334,0.674345368,-4.049990883,-1.948295529,32.09509091,0.024186602,32.05,32.13,0.14479638,0.000652075,0,1,0
0,0.02127135,0.000454785,0.019265499,0.022705766,-0.02127134,0.000454785,-0.022705756,-0.01926549,-1.46E-05,3.13E-07,-1.56E-05,-1.33E-05,-1.46E-05,3.13E-07,-1.56E-05,-1.33E-05,0.269519503,24.46430207,-57.35,40.97,0.269610827,0.001176358,0.265059587,0.272632979,0.372396681,0.143860936,0.123403239,0.594939729,0.262988184,0.590200106,6.77E-08,3.410399269,-2.143973266,0.135125465,-2.317573805,-1.915760682,32.16468468,0.020569365,32.13,32.21,0.149236857,0.000511144,0,1,0
0,0.021589625,0.000443818,0.019265499,0.02339382,-0.021589615,0.000443818,-0.023393809,-0.01926549,-1.49E-05,3.05E-07,-1.61E-05,-1.33E-05,-1.49E-05,3.05E-07,-1.61E-05,-1.33E-05,-0.087647059,24.6376345,-59.61,35.5,0.268280073,0.001026098,0.26498153,0.270780151,0.20321238,0.082880892,0.085283869,0.366875537,0.156325387,0.387724276,1.04E-07,2.652746435,-2.027041385,0.08896165,-2.169966349,-1.904616933,32.22288288,0.01662449,32.18,32.25,0.153846154,0.000332222,0,1,0
0,0.022738457,0.004024668,0.006192482,0.051604014,-0.022738446,0.004024666,-0.05160399,-0.006192479,-1.56E-05,2.77E-06,-3.55E-05,-4.26E-06,-1.56E-05,2.77E-06,-3.55E-05,-4.26E-06,-0.31174675,29.79238957,-118.04,68.72,0.267019424,0.0016112,0.262823998,0.272810764,0.527607405,0.159794391,0.131587773,0.770598815,0.443863739,0.804358616,5.36E-08,3.916655043,-2.401448536,0.15873994,-2.560456345,-2.013326508,32.25545455,0.015933747,32.21,32.29,0.149236857,0.000239479,0,1,0
0,0.023410165,0.00215585,0.013073017,0.041283211,-0.023410154,0.002155849,-0.041283192,-0.013073011,-1.61E-05,1.48E-06,-2.84E-05,-8.99E-06,-1.61E-05,1.48E-06,-2.84E-05,-8.99E-06,1.06719457,36.12519505,-111.99,112.77,0.264597626,0.001377234,0.261458428,0.268944864,0.469742648,0.215819325,0.166564483,1.017085748,0.363356604,0.663897302,3.23E-08,3.12175997,-2.440942884,0.211707493,-2.961837372,-2.21665461,32.23864865,0.015096476,32.21,32.27,0.14479638,-0.00032643,0,1,0
0,0.01941494,0.005585858,0.013073017,0.045411533,-0.019414931,0.005585855,-0.045411511,-0.013073011,-1.34E-05,3.84E-06,-3.12E-05,-8.99E-06,-1.34E-05,3.84E-06,-3.12E-05,-8.99E-06,-1.115690045,33.34879438,-170.72,114.44,0.265437343,0.002692113,0.253408755,0.270930307,0.405668386,0.368260648,0.045586645,1.167955674,0.276392581,0.75768343,5.89E-08,5.155728847,-2.340850476,0.361597757,-2.992200719,-2.016273016,32.23127273,0.011840538,32.21,32.25,0.158371041,-3.02E-05,0,1,0
0,0.016354682,0.00043943,0.012384963,0.017889392,-0.016354675,0.00043943,-0.017889383,-0.012384958,-1.13E-05,3.02E-07,-1.23E-05,-8.52E-06,-1.13E-05,3.02E-07,-1.23E-05,-8.52E-06,0.280994912,29.2995301,-73.1,44.38,0.267710804,0.001247524,0.264251597,0.270232465,0.290678661,0.046410628,0.175641112,0.379798675,0.2299963,0.430616408,7.85E-08,1.962694894,-2.137112896,0.019144897,-2.171224678,-2.10285533,32.2481982,0.014344425,32.23,32.27,0.149236857,0.000138821,0,1,0
0,0.016565433,0.000380203,0.015825231,0.017201338,-0.016565426,0.000380203,-0.01720133,-0.015825224,-1.14E-05,2.62E-07,-1.18E-05,-1.09E-05,-1.14E-05,2.62E-07,-1.18E-05,-1.09E-05,0.178348416,31.32430738,-70.54,39.5,0.268492497,0.001369167,0.2645447,0.272466417,0.322338899,0.099554101,0.134736029,0.49713878,0.239287924,0.53495031,6.33E-08,2.733768403,-2.137956761,0.084145599,-2.27342007,-2.01855613,32.26563636,0.014111715,32.23,32.29,0.149321267,0.000309447,0,1,0
0,0.016748344,0.000376598,0.015825231,0.017889392,-0.016748336,0.000376598,-0.017889383,-0.015825224,-1.15E-05,2.59E-07,-1.23E-05,-1.09E-05,-1.15E-05,2.59E-07,-1.23E-05,-1.09E-05,-0.022114189,31.19558845,-71.22,39.9,0.270647775,0.001021061,0.267865076,0.272661801,0.211188704,0.032242443,0.139507352,0.287147114,0.169564044,0.341167052,7.72E-08,1.721979407,-1.941187637,0.034012057,-2.013835286,-1.899802577,32.28369369,0.014201125,32.25,32.31,0.153759186,8.95E-05,0,1,0
0,0.032257568,0.013911245,0.008256642,0.063988978,-0.032257553,0.013911238,-0.063988947,-0.008256638,-2.22E-05,9.57E-06,-4.40E-05,-5.68E-06,-2.22E-05,9.57E-06,-4.40E-05,-5.68E-06,0.142556561,37.89858812,-209.02,208.1,0.272503463,0.001926556,0.269155691,0.277696556,0.343051484,0.133301905,0.166388189,0.59543909,0.269108019,0.544320739,4.87E-08,2.586352739,-2.000026932,0.10892536,-2.18370645,-1.867703154,32.27581818,0.014102341,32.25,32.29,0.149321267,-6.92E-05,0,1,0
0,0.044517452,0.000740713,0.038530997,0.047475693,-0.044517431,0.000740713,-0.047475671,-0.038530979,-3.06E-05,5.10E-07,-3.27E-05,-2.65E-05,-3.06E-05,5.10E-07,-3.27E-05,-2.65E-05,-0.043578293,26.03010935,-80.27,71.78,0.27900336,0.001724595,0.275208982,0.282886984,0.291212856,0.089078437,0.151964215,0.470235589,0.226426211,0.474142012,7.29E-08,2.215848197,-1.690380296,0.066590441,-1.851509188,-1.583605722,32.25558559,0.014988565,32.23,32.29,0.149236857,-0.000164268,0,1,0
0,0.044545239,0.000882935,0.032338516,0.050915961,-0.044545218,0.000882934,-0.050915937,-0.0323385,-3.06E-05,6.08E-07,-3.50E-05,-2.23E-05,-3.06E-05,6.08E-07,-3.50E-05,-2.23E-05,-0.274553167,24.13731329,-84.2,59.01,0.28213609,0.001077902,0.279060631,0.284480597,0.313567132,0.102454726,0.187483956,0.616289637,0.273402047,0.548586024,8.95E-08,2.475728743,-1.589095617,0.093749232,-1.851985627,-1.485529735,32.23036364,0.012928283,32.21,32.25,0.158371041,-0.000150035,0,1,0
0,0.02258668,0.004752039,0.002752214,0.068117299,-0.022578886,0.004788882,-0.068117267,0.003440266,-1.55E-05,3.30E-06,-4.69E-05,2.37E-06,-1.55E-05,3.30E-06,-4.69E-05,2.37E-06,0.390260181,38.59318613,-194.11,206.53,0.2759239,0.002602333,0.272662019,0.285553247,0.340162834,0.177279869,0.056012918,0.678596924,0.255390905,0.58598146,4.49E-08,3.080813627,-1.861324373,0.123272284,-2.144999717,-1.666091544,32.22189189,0.011508987,32.21,32.25,0.149321267,0.000170937,0,1,0
0,0.034816754,0.011327307,0.003440268,0.057796496,-0.034816737,0.011327301,-0.057796469,-0.003440266,-2.40E-05,7.79E-06,-3.98E-05,-2.37E-06,-2.40E-05,7.79E-06,-3.98E-05,-2.37E-06,-0.133431317,44.48532768,-142.53,194.07,0.278134789,0.002804436,0.266618194,0.283387468,0.647777956,0.214951814,0.294247171,1.039144165,0.513397725,0.901747079,3.97E-08,4.863343362,-2.081420665,0.269313246,-2.422088655,-1.66002657,32.24781818,0.01357684,32.21,32.27,0.153759186,-4.47E-05,0,1,0
0,0.02436519,0.001673921,0.018577445,0.030962409,-0.024365178,0.00167392,-0.030962394,-0.018577436,-1.68E-05,1.15E-06,-2.13E-05,-1.28E-05,-1.68E-05,1.15E-06,-2.13E-05,-1.28E-05,-0.117743213,24.92583049,-58.17,51.75,0.272015489,0.002408002,0.26840481,0.280138876,0.502453896,0.223899423,0.217445156,0.927936973,0.337193821,0.70460717,4.03E-08,3.537631143,-2.178660009,0.191704576,-2.48515372,-1.929007005,32.25972973,0.014671137,32.23,32.29,0.149321267,0.000211127,0,1,0
0,0.029521772,0.00702172,0.018577445,0.053668175,-0.029521758,0.007021717,-0.05366815,-0.018577436,-2.03E-05,4.83E-06,-3.69E-05,-1.28E-05,-2.03E-05,4.83E-06,-3.69E-05,-1.28E-05,0.226710006,33.23523731,-124.2,129.8,0.275029341,0.003188041,0.270450035,0.28157209,0.279066222,0.139983768,0.132562202,0.551561423,0.231674633,0.479809778,9.47E-08,2.569440949,-1.835636426,0.040621178,-1.925026394,-1.78034132,32.27290909,0.015917141,32.25,32.31,0.149236857,4.33E-05,0,1,0
0,0.033798684,0.003410783,0.027522141,0.052292068,-0.033798668,0.003410781,-0.052292043,-0.027522128,-2.33E-05,2.35E-06,-3.60E-05,-1.89E-05,-2.33E-05,2.35E-06,-3.60E-05,-1.89E-05,0.062279412,32.82832127,-129.38,100.83,0.281255959,0.001282649,0.277251539,0.284266224,0.382502935,0.06814893,0.241630335,0.544918229,0.289767463,0.53203239,5.70E-08,3.022727961,-1.692568646,0.06778672,-1.845959972,-1.607232807,32.26045045,0.015847664,32.21,32.29,0.14479638,-0.00027027,0,1,0
0,0.032143152,0.000884769,0.029586302,0.03715489,-0.032143137,0.000884769,-0.037154873,-0.029586288,-2.21E-05,6.09E-07,-2.56E-05,-2.04E-05,-2.21E-05,6.09E-07,-2.56E-05,-2.04E-05,-0.186419683,27.55296493,-63.52,40.45,0.283728779,0.001844031,0.278671563,0.288344619,0.45704699,0.05475847,0.324068855,0.558813062,0.347157737,0.645757154,8.45E-08,2.709775649,-1.669230647,0.073450555,-1.773802111,-1.501842399,32.23763636,0.012928283,32.21,32.25,0.14479638,-4.90E-05,0,1,0
0,0.032989209,0.001601869,0.030274355,0.044035426,-0.032989193,0.001601868,-0.044035405,-0.030274341,-2.27E-05,1.10E-06,-3.03E-05,-2.08E-05,-2.27E-05,1.10E-06,-3.03E-05,-2.08E-05,-0.443595252,31.26952407,-132.95,89.8,0.287678775,0.001712904,0.283310557,0.291565672,0.38551016,0.047534429,0.298022927,0.491240127,0.307473068,0.531002375,6.34E-08,2.255604603,-1.441023717,0.021092117,-1.497263294,-1.40360565,32.19558559,0.019204198,32.18,32.23,0.144714528,-0.00027378,0,1,0
0,0.032968194,0.002747212,0.018577445,0.043347372,-0.032968178,0.002747211,-0.043347352,-0.018577436,-2.27E-05,1.89E-06,-2.98E-05,-1.28E-05,-2.27E-05,1.89E-06,-2.98E-05,-1.28E-05,1.95428733,29.97317901,-64.44,125.49,0.290654231,0.001400541,0.287248922,0.2938603,0.343072493,0.127520422,0.173189737,0.700417308,0.272603513,0.581287481,7.94E-08,3.249335613,-1.281147751,0.110018518,-1.527719195,-1.129878661,32.15709091,0.014730639,32.13,32.18,0.149321267,-0.000217839,0,1,0
0,0.031445212,0.005642885,0.012384963,0.056420389,-0.031445197,0.005642882,-0.056420362,-0.012384958,-2.16E-05,3.88E-06,-3.88E-05,-8.52E-06,-2.16E-05,3.88E-06,-3.88E-05,-8.52E-06,-2.905409836,51.72221793,-283.33,193.77,0.289831488,0.001576207,0.285608083,0.294281331,0.45829405,0.180727271,0.161728005,0.7768935,0.342985666,0.640517057,6.26E-08,2.873443082,-1.428515256,0.191180404,-1.699305073,-1.17341247,32.15324324,0.008400146,32.13,32.18,0.149236857,-2.47E-05,0,1,0
0,0.024494394,0.004928607,0.014449124,0.059860657,-0.024494383,0.004928605,-0.059860628,-0.014449117,-1.69E-05,3.39E-06,-4.12E-05,-9.94E-06,-1.69E-05,3.39E-06,-4.12E-05,-9.94E-06,1.233885747,36.73483328,-135.75,104.59,0.28675713,0.002007435,0.28149082,0.291775909,0.334535074,0.076118361,0.194520101,0.457042405,0.243225625,0.495419804,7.09E-08,2.526540043,-1.427257064,0.043600718,-1.500584829,-1.371357774,32.16387387,0.011638022,32.13,32.18,0.149321267,0.000114075,0,1,0
0,0.022756358,0.00400601,0.013073017,0.026834087,-0.022756348,0.004006009,-0.026834075,-0.013073011,-1.57E-05,2.76E-06,-1.85E-05,-8.99E-06,-1.57E-05,2.76E-06,-1.85E-05,-8.99E-06,-0.276743923,26.96643767,-75.88,46.71,0.291096302,0.004615396,0.285381422,0.305347178,0.445765475,0.199307818,0.214255554,1.055931271,0.358971319,0.801086631,6.46E-08,6.211540496,-1.366147001,0.076377553,-1.489884379,-1.157243556,32.16054545,0.01118736,32.13,32.18,0.149236857,-0.000161937,0,1,0
0,0.02529842,0.006862667,0.015825231,0.045411533,-0.025298409,0.006862664,-0.045411511,-0.015825224,-1.74E-05,4.72E-06,-3.12E-05,-1.09E-05,-1.74E-05,4.72E-06,-3.12E-05,-1.09E-05,-0.352941176,43.38006435,-133.58,157.99,0.294690857,0.003551583,0.287380302,0.302276719,0.641202616,0.321712705,0.228322818,1.348884924,0.543799794,0.99232767,3.51E-08,5.94787116,-1.418866642,0.417337325,-2.022344619,-0.908555686,32.15072072,0.012571361,32.13,32.18,0.149321267,2.56E-05,0,1,0
0,0.026876118,0.003812612,0.01169691,0.036466837,-0.026876105,0.00381261,-0.03646682,-0.011696904,-1.85E-05,2.62E-06,-2.51E-05,-8.05E-06,-1.85E-05,2.62E-06,-2.51E-05,-8.05E-06,0.7075,39.11212646,-138.99,177.09,0.289392498,0.002166107,0.285536606,0.295375596,0.697475227,0.270630238,0.13726404,1.136095168,0.460350803,0.933864382,6.31E-08,3.969544499,-1.685253459,0.216892812,-2.004080123,-1.20171604,32.13909091,0.01132539,32.11,32.15,0.158371041,-2.16E-05,0,1,0
0,0.031509742,0.003992224,0.01376107,0.044035426,-0.031509727,0.003992222,-0.044035405,-0.013761064,-2.17E-05,2.75E-06,-3.03E-05,-9.47E-06,-2.17E-05,2.75E-06,-3.03E-05,-9.47E-06,0.212001131,25.28996917,-136.66,55.12,0.291668143,0.001559953,0.288262034,0.295014664,0.191960427,0.049569751,0.109201827,0.352684341,0.154067582,0.384782078,8.23E-08,2.638600978,-1.089923286,0.045008172,-1.193545238,-1.022315928,32.16135135,0.012978602,32.13,32.18,0.162803844,0.000165233,0,1,0
0,0.035191136,0.00526942,0.008944696,0.051604014,-0.035191119,0.005269418,-0.05160399,-0.008944692,-2.42E-05,3.63E-06,-3.55E-05,-6.15E-06,-2.42E-05,3.63E-06,-3.55E-05,-6.15E-06,-0.405412896,56.22307704,-490.66,189.62,0.292444813,0.006060598,0.267373101,0.300106061,0.84256491,0.782051013,0.049468663,2.314989082,0.832883479,1.523108292,2.13E-08,8.118090344,-1.709209943,0.909504636,-3.68176519,-0.870962033,32.18581818,0.016915932,32.16,32.21,0.081447964,0.000194757,0,1,0
0,0.026757032,0.005462722,0.017889392,0.061236764,-0.026757019,0.005462719,-0.061236735,-0.017889383,-1.84E-05,3.76E-06,-4.21E-05,-1.23E-05,-1.84E-05,3.76E-06,-4.21E-05,-1.23E-05,0.318292821,55.77687767,-261.37,174.24,0.298644163,0.00765587,0.27955023,0.311410104,1.519520674,0.932227675,0.379331308,3.11057258,1.004635083,1.85517405,3.41E-08,9.073533292,-2.140759459,1.132217299,-3.855652845,-0.852025077,32.19234234,0.017029648,32.16,32.21,0.167326173,-8.23E-05,0,1,0
0,0.025493784,0.000297807,0.02339382,0.026834087,-0.025493772,0.000297807,-0.026834075,-0.023393809,-1.75E-05,2.05E-07,-1.85E-05,-1.61E-05,-1.75E-05,2.05E-07,-1.85E-05,-1.61E-05,-0.497488688,25.09438535,-69.24,55.41,0.306472685,0.001291214,0.303372778,0.308752698,0.228976804,0.075004238,0.094976128,0.422520287,0.156552737,0.339643673,1.19E-07,1.887369504,-0.540744219,0.099542334,-0.840508336,-0.450536848,32.17145455,0.020486641,32.13,32.21,0.158371041,-0.000466335,0,1,0
0,0.025465755,0.000359714,0.024081873,0.028210195,-0.025465743,0.000359713,-0.028210181,-0.024081862,-1.75E-05,2.48E-07,-1.94E-05,-1.66E-05,-1.75E-05,2.48E-07,-1.94E-05,-1.66E-05,-0.015816846,35.29337005,-83.74,60.95,0.308709012,0.001109655,0.305452307,0.310926592,0.282207855,0.062796729,0.166158141,0.383446843,0.227234353,0.399174413,1.12E-07,1.548547484,-0.504775345,0.074702285,-0.600894737,-0.392181095,32.13288288,0.014910386,32.11,32.15,0.149236857,-0.000282204,0,1,0
0,0.025577845,0.000353374,0.024081873,0.026834087,-0.025577833,0.000353374,-0.026834075,-0.024081862,-1.76E-05,2.43E-07,-1.85E-05,-1.66E-05,-1.76E-05,2.43E-07,-1.85E-05,-1.66E-05,0.380707014,38.75602959,-88.58,47.28,0.310965437,0.001518623,0.307862175,0.314492061,0.478128513,0.133402894,0.283357805,0.716219035,0.371693162,0.674935204,1.00E-07,2.724969015,-0.611673704,0.112738795,-0.806667034,-0.480460026,32.11363636,0.013261515,32.09,32.15,0.153846154,5.12E-05,0,1,0
0,0.025703158,0.000419597,0.024081873,0.029586302,-0.025703146,0.000419596,-0.029586288,-0.024081862,-1.77E-05,2.89E-07,-2.04E-05,-1.66E-05,-1.77E-05,2.89E-07,-2.04E-05,-1.66E-05,0.048059955,33.95387238,-85.56,46.24,0.314168367,0.001140196,0.311614826,0.316523591,0.381210929,0.058555234,0.261420591,0.502746662,0.300757062,0.552428987,9.53E-08,2.518706112,-0.387931095,0.053898136,-0.506293636,-0.31373382,32.09918919,0.014651208,32.05,32.11,0.162895928,-8.07E-06,0,1,0
0,0.029253172,0.003172427,0.01376107,0.048163747,-0.029253158,0.003172425,-0.048163724,-0.013761064,-2.01E-05,2.18E-06,-3.31E-05,-9.47E-06,-2.01E-05,2.18E-06,-3.31E-05,-9.47E-06,-0.267422272,41.55010792,-199.29,184.68,0.307333955,0.002529214,0.303803518,0.315198843,0.319531885,0.103231248,0.152563366,0.562991642,0.240602525,0.430813446,5.98E-08,1.596563819,-0.596736221,0.08272499,-0.706558991,-0.467248995,32.08963636,0.015950336,32.07,32.11,0.162803844,-7.50E-05,0,1,0
0,0.028439805,0.006934518,0.004816375,0.046099586,-0.028439792,0.006934514,-0.046099564,-0.004816372,-1.96E-05,4.77E-06,-3.17E-05,-3.31E-06,-1.96E-05,4.77E-06,-3.17E-05,-3.31E-06,0.644394796,45.3740202,-155.26,222.83,0.309513469,0.002381241,0.303754378,0.31669642,0.52056563,0.245725457,0.239003793,0.983473632,0.43017086,0.822680963,7.86E-08,3.394828781,-0.711299611,0.186382108,-1.052530997,-0.495010257,32.11738739,0.022248057,32.07,32.16,0.149321267,0.000541681,0,1,0
0,0.02780125,0.003787412,0.019265499,0.036466837,-0.027801237,0.00378741,-0.03646682,-0.01926549,-1.91E-05,2.61E-06,-2.51E-05,-1.33E-05,-1.91E-05,2.61E-06,-2.51E-05,-1.33E-05,-0.489587337,26.19594847,-128.56,42.88,0.306398068,0.001281423,0.303317174,0.309243438,0.401884172,0.167044714,0.182302789,0.771279763,0.278115081,0.518134245,1.22E-07,2.28415588,-0.7161525,0.157106377,-1.051907611,-0.591373797,32.16036364,0.010262666,32.15,32.18,0.144714528,0.000199445,0,1,0
0,0.03077405,0.008087162,0.000688054,0.062612871,-0.030772479,0.00809308,-0.062612841,0.000688053,-2.12E-05,5.57E-06,-4.31E-05,4.73E-07,-2.12E-05,5.57E-06,-4.31E-05,4.73E-07,-0.810972851,47.12045214,-187.48,184.4,0.331741346,0.007153721,0.314902422,0.339427428,1.279591242,0.462328226,0.50722527,2.17329388,1.022574752,1.375750941,2.79E-08,6.363463345,-0.59031215,0.592293326,-1.295735697,0.317712191,32.6481982,0.010671018,32.63,32.66,0.104072398,-0.000150667,0,0,1
0,0.034854892,0.007382367,0,0.05848455,-0.034854876,0.007382363,-0.058484522,0,-2.40E-05,5.08E-06,-4.02E-05,0,-2.40E-05,5.08E-06,-4.02E-05,0,-0.149694743,37.49283197,-106.72,136.12,0.337853009,0.00295841,0.333280902,0.344646081,0.749511887,0.228662066,0.367891826,1.353644869,0.543512655,0.94235558,7.43E-08,4.194526906,0.181973,0.25803207,-0.563993312,0.417190708,32.64672727,0.013355904,32.61,32.66,0.284906727,0.000199085,0,0,1
0,0.031414625,0.006131258,0.011008856,0.052980121,-0.03141461,0.006131256,-0.052980096,-0.011008851,-2.16E-05,4.22E-06,-3.65E-05,-7.57E-06,-2.16E-05,4.22E-06,-3.65E-05,-7.57E-06,0.535248869,38.50631839,-99.28,165.75,0.338031207,0.001243279,0.334774531,0.341638675,0.765851191,0.091941074,0.58454441,0.991313251,0.596132015,0.987969316,1.57E-07,3.877188869,0.172643372,0.086562234,-0.038641174,0.303268072,32.66297297,0.011357785,32.63,32.68,0.085972851,0.000133292,0,0,1
0,0.031435883,0.007427577,0.008256642,0.066053138,-0.031435868,0.007427573,-0.066053107,-0.008256638,-2.16E-05,5.11E-06,-4.54E-05,-5.68E-06,-2.16E-05,5.11E-06,-4.54E-05,-5.68E-06,-0.765929904,51.25033761,-129.02,169.31,0.3366764,0.001735233,0.331542668,0.339540799,0.776346182,0.153056894,0.475110127,1.036537137,0.612077762,1.028495052,8.08E-08,4.533142942,0.108429685,0.170834585,-0.139638964,0.33480488,32.67381818,0.014332532,32.65,32.71,0.054267948,5.16E-05,0,0,1
0,0.028593917,0.008684479,0.000688054,0.057108443,-0.028564326,0.008781268,-0.057108415,0.006192479,-1.97E-05,6.04E-06,-3.93E-05,4.26E-06,-1.97E-05,6.04E-06,-3.93E-05,4.26E-06,-0.262488688,52.92554807,-196.95,253.72,0.342231783,0.003923097,0.33295096,0.352111646,1.322622856,0.25043675,0.866555551,1.80226886,1.014245432,1.88108215,1.02E-07,12.15652729,-0.217353982,0.225764754,-0.49239378,0.188252988,32.71342342,0.02322997,32.66,32.75,0.07239819,0.000547912,0,0,1
0,0.035860509,0.008064509,0.000688054,0.079814209,-0.035851152,0.008105926,-0.079814171,0.004128319,-2.47E-05,5.58E-06,-5.49E-05,2.84E-06,-2.47E-05,5.58E-06,-5.49E-05,2.84E-06,-0.040090498,46.40040172,-162.58,211.2,0.340033847,0.002390968,0.335332315,0.347226568,0.860691116,0.09743205,0.671233798,1.094654556,0.656656107,1.114720467,1.11E-07,5.566269777,0.156672935,0.036785821,0.094547143,0.206916064,32.74945455,0.011586541,32.71,32.77,0.049773756,1.71E-06,0,0,1
0,0.030136589,0.008595081,0.000688054,0.072933674,-0.030136574,0.008595077,-0.072933639,-0.000688053,-2.07E-05,5.91E-06,-5.02E-05,-4.73E-07,-2.07E-05,5.91E-06,-5.02E-05,-4.73E-07,-0.266806105,37.17150572,-119.63,190.11,0.340913911,0.00207723,0.335655119,0.34841457,0.799235412,0.220650767,0.444680857,1.206618593,0.570012331,1.008193382,1.44E-07,4.980700408,0.253286173,0.192825825,0.044266536,0.570281286,32.74963964,0.013146981,32.71,32.77,0.063312606,-9.48E-06,0,0,1
0,0.03127608,0.007370465,0.004816375,0.057108443,-0.031276065,0.007370462,-0.057108415,-0.004816372,-2.15E-05,5.07E-06,-3.93E-05,-3.31E-06,-2.15E-05,5.07E-06,-3.93E-05,-3.31E-06,0.397177602,37.18193398,-113.67,119.73,0.340884873,0.001440038,0.337328644,0.343749265,0.516025833,0.077287337,0.366879224,0.675229335,0.397273237,0.717057268,1.46E-07,2.879803632,0.535614826,0.062931731,0.439120379,0.62973329,32.76636364,0.010848316,32.75,32.79,0.122171946,0.000101706,0,0,1
0,0.029278427,0.006515178,0.002752214,0.051604014,-0.029256644,0.006612242,-0.05160399,0.005504426,-2.01E-05,4.55E-06,-3.55E-05,3.79E-06,-2.01E-05,4.55E-06,-3.55E-05,3.79E-06,0.935285472,38.24098545,-160.39,199.6,0.342121532,0.002034051,0.336819382,0.346436668,0.549818665,0.051372489,0.429201533,0.680649353,0.421945118,0.723879726,1.27E-07,3.549094536,0.550684959,0.0805058,0.450832806,0.71108728,32.78675676,0.014088661,32.77,32.81,0.036178632,0.00023675,0,0,1
0,0.034933505,0.006583647,0.006880535,0.063300924,-0.034933488,0.006583644,-0.063300894,-0.006880532,-2.40E-05,4.53E-06,-4.36E-05,-4.73E-06,-2.40E-05,4.53E-06,-4.36E-05,-4.73E-06,-0.712154977,44.99559487,-175.02,220.18,0.350072219,0.003344418,0.339881694,0.355651923,0.518017411,0.08894919,0.295589911,0.728854676,0.428143957,0.720558216,1.21E-07,2.912644439,0.897435231,0.092589778,0.714547178,1.008929544,32.81234234,0.013352798,32.79,32.83,0.067873303,6.35E-05,0,0,1
0,0.036261355,0.008058351,0.000688054,0.080502262,-0.036244214,0.008135018,-0.080502224,0.006880532,-2.49E-05,5.60E-06,-5.54E-05,4.73E-06,-2.49E-05,5.60E-06,-5.54E-05,4.73E-06,-0.026229508,42.39498929,-150,132.01,0.351651188,0.002030839,0.346054623,0.356036394,0.814235132,0.168125145,0.494420033,1.149611995,0.623870619,1.134113473,8.46E-08,4.783741813,0.663772265,0.146696875,0.433065549,0.843870315,32.81545455,0.017458333,32.77,32.84,0.072357264,0.000363546,0,0,1
0,0.04296832,0.003701428,0.026834087,0.084630584,-0.0429683,0.003701427,-0.084630543,-0.026834075,-2.96E-05,2.55E-06,-5.82E-05,-1.85E-05,-2.96E-05,2.55E-06,-5.82E-05,-1.85E-05,2.090967195,48.55477886,-174.02,210.08,0.349735452,0.001672631,0.345439002,0.353713188,0.723460466,0.086821972,0.537318507,0.88328598,0.540251627,0.98859655,1.24E-07,4.961357538,0.678551994,0.064351147,0.572391922,0.800284847,32.84342342,0.017320274,32.81,32.87,0.095022624,0.000311776,0,0,1
0,0.035966363,0.011218312,0.000688054,0.088070851,-0.035771761,0.01182411,-0.088070809,0.050915937,-2.46E-05,8.14E-06,-6.06E-05,3.50E-05,-2.46E-05,8.14E-06,-6.06E-05,3.50E-05,-3.349886878,66.92309821,-191.14,278.21,0.359734646,0.027311905,0.343149911,0.533147893,14.71653228,10.01923204,0.591540885,29.63154472,12.98959186,16.43416131,3.48E-09,117.2344306,-12.91645425,9.430387589,-25.22259863,0.621044648,32.86827273,0.018966913,32.84,32.91,0.108597285,0.000360886,0,0,1
0,0.042145416,0.001637291,0.033026569,0.0488518,-0.042145396,0.001637291,-0.048851777,-0.033026554,-2.90E-05,1.13E-06,-3.36E-05,-2.27E-05,-2.90E-05,1.13E-06,-3.36E-05,-2.27E-05,0.776026003,44.52725141,-210.74,263.12,0.370766713,0.001790754,0.366819612,0.375590021,5.427250748,6.150348201,0.961212877,22.50841843,2.700875389,3.671849934,1.54E-07,21.52366765,-3.192369327,6.125108102,-20.14669116,1.278203695,32.88423423,0.013920595,32.84,32.91,0.049745619,-0.000238329,0,0,1
0,0.036676211,0.004809651,0.018577445,0.046099586,-0.036676193,0.004809649,-0.046099564,-0.018577436,-2.52E-05,3.31E-06,-3.17E-05,-1.28E-05,-2.52E-05,3.31E-06,-3.17E-05,-1.28E-05,0.384988688,21.73045223,-116.19,65.5,0.345099044,0.017969663,0.305867111,0.379144842,3.465874144,1.089274602,1.143912376,4.987025026,2.530040229,3.283110452,2.20E-08,19.97628528,-2.247001937,0.760627851,-3.401456581,-0.672213142,32.89690909,0.017567814,32.87,32.95,0.07239819,0.000375809,0,0,1
0,0.03164657,0.000809952,0.027522141,0.033714623,-0.031646555,0.000809951,-0.033714607,-0.027522128,-2.18E-05,5.57E-07,-2.32E-05,-1.89E-05,-2.18E-05,5.57E-07,-2.32E-05,-1.89E-05,0.257020916,19.59906016,-104.83,66.83,0.299732449,0.002047121,0.295331316,0.305421491,0.61413923,0.216522399,0.317653347,1.125118606,0.445607079,0.794941459,6.73E-08,4.47233813,-1.193078328,0.182096087,-1.508622393,-0.956126759,32.95324324,0.019085496,32.91,32.99,0.257772753,0.000460863,0,0,1
0,0.03007977,0.000795382,0.028210195,0.033026569,-0.030079756,0.000795382,-0.033026554,-0.028210181,-2.07E-05,5.47E-07,-2.27E-05,-1.94E-05,-2.07E-05,5.47E-07,-2.27E-05,-1.94E-05,0.093795249,15.69474043,-60.35,44.33,0.308331031,0.007027492,0.295561263,0.317736158,0.601837188,0.245496865,0.266065359,0.990131942,0.448033517,0.892324078,1.16E-07,5.06841446,-0.839110449,0.502642794,-1.559712656,-0.240158671,33.00018182,0.017734497,32.97,33.03,0.266968326,0.000417826,0,0,1
0,0.030145296,0.00075757,0.028210195,0.033026569,-0.030145282,0.00075757,-0.033026554,-0.028210181,-2.07E-05,5.21E-07,-2.27E-05,-1.94E-05,-2.07E-05,5.21E-07,-2.27E-05,-1.94E-05,-0.245618994,14.36376816,-35.37,34.25,0.307946864,0.007995674,0.297195817,0.321483974,0.694232204,0.188222769,0.37068786,1.092095655,0.529045677,1.005354157,5.85E-08,5.244972494,-0.947227242,0.359635535,-1.411080082,-0.269324288,33.06891892,0.02178318,33.03,33.09,0.253250424,0.000528607,0,0,1
0,0.026668301,0.006292839,0.010320803,0.052292068,-0.026668288,0.006292836,-0.052292043,-0.010320798,-1.83E-05,4.33E-06,-3.60E-05,-7.10E-06,-1.83E-05,4.33E-06,-3.60E-05,-7.10E-06,0.089621041,20.20347008,-89.49,104.25,0.316419883,0.008866751,0.301601577,0.327615797,0.80387611,0.283278542,0.392219073,1.332725378,0.628040903,1.216721423,1.07E-07,8.92275768,-0.721596418,0.229886932,-0.943646204,-0.160883503,33.11327273,0.016954972,33.09,33.13,0.266968326,0.000253184,0,0,1
0,0.022129016,0.000705678,0.019265499,0.024769927,-0.022129005,0.000705678,-0.024769915,-0.01926549,-1.52E-05,4.86E-07,-1.70E-05,-1.33E-05,-1.52E-05,4.86E-07,-1.70E-05,-1.33E-05,0.081843891,18.70907447,-70.44,58.95,0.330107559,0.001942824,0.324000231,0.333489621,0.517380851,0.21230218,0.253758053,1.129586475,0.43230497,0.747124049,8.74E-08,4.057503583,0.107487429,0.20757816,-0.42035814,0.33348271,33.15099099,0.019449864,33.11,33.18,0.248868778,0.000490435,0,0,1
0,0.022454362,0.001204923,0.017201338,0.026146034,-0.022454352,0.001204922,-0.026146022,-0.01720133,-1.54E-05,8.29E-07,-1.80E-05,-1.18E-05,-1.54E-05,8.29E-07,-1.80E-05,-1.18E-05,-0.189293386,19.62917197,-75.13,47.16,0.329108153,0.002091271,0.325601572,0.334938616,0.822581579,0.272730202,0.432917019,1.261641394,0.59297475,0.950591499,6.80E-08,4.641475308,-0.237531749,0.223572259,-0.577224913,0.057854877,33.17318182,0.014392663,33.15,33.21,0.253250424,0.000204269,0,0,1
0,0.021955445,0.000867973,0.019953552,0.02545798,-0.021955435,0.000867972,-0.025457968,-0.019953543,-1.51E-05,5.97E-07,-1.75E-05,-1.37E-05,-1.51E-05,5.97E-07,-1.75E-05,-1.37E-05,-0.095090498,17.26445683,-38.22,33.4,0.329879373,0.001358498,0.32610593,0.332772882,0.497355367,0.052306024,0.366558458,0.609822991,0.377036259,0.68173999,7.98E-08,2.908734809,0.118308411,0.026384704,0.062111585,0.183547117,33.19216216,0.017000551,33.16,33.23,0.244343891,-2.73E-05,0,0,1
0,0.037479092,0.01015995,0.007568589,0.052292068,-0.037479074,0.010159945,-0.052292043,-0.007568585,-2.58E-05,6.99E-06,-3.60E-05,-5.21E-06,-2.58E-05,6.99E-06,-3.60E-05,-5.21E-06,0.185511588,23.576325,-84.45,76.79,0.334212675,0.001978239,0.329015829,0.338827512,0.565071965,0.135440451,0.307369275,0.831012492,0.45050998,0.720527233,9.80E-08,3.768839733,0.222151151,0.117136014,0.050141472,0.382719573,33.19418182,0.017235366,33.16,33.23,0.22611645,2.52E-06,0,0,1
0,0.044083683,0.000399255,0.041283211,0.046099586,-0.044083662,0.000399255,-0.046099564,-0.041283192,-3.03E-05,2.75E-07,-3.17E-05,-2.84E-05,-3.03E-05,2.75E-07,-3.17E-05,-2.84E-05,-0.104654977,17.42794961,-57.81,54.86,0.334992437,0.001714494,0.331996931,0.342224267,0.534117618,0.238886794,0.153396168,0.998022419,0.407558891,0.792809002,7.64E-08,4.235438638,0.283250771,0.199559458,0.0167795,0.594374718,33.12693694,0.028562963,33.07,33.16,0.212669683,-0.000816076,0,0,1
0,0.011290616,0.001336576,0.006192482,0.017201338,-0.011290611,0.001336575,-0.01720133,-0.006192479,-7.77E-06,9.20E-07,-1.18E-05,-4.26E-06,-7.77E-06,9.20E-07,-1.18E-05,-4.26E-06,-0.038093891,18.8630102,-67.51,140.81,0.316481938,0.001411547,0.313072106,0.319854855,0.493490802,0.07912735,0.322110897,0.668414073,0.364097214,0.677569865,1.06E-07,3.165707012,-0.408609421,0.062752934,-0.497174242,-0.231250019,31.99018018,0.00910222,31.97,32,0.171945701,-7.72E-05,1,0,0
0,0.010656268,0.000360642,0.009632749,0.01169691,-0.010656263,0.000360642,-0.011696904,-0.009632745,-7.33E-06,2.48E-07,-8.05E-06,-6.63E-06,-7.33E-06,2.48E-07,-8.05E-06,-6.63E-06,0.067574901,8.869765487,-36.88,14.59,0.319033737,0.00120635,0.313948459,0.321411528,0.540641553,0.106827553,0.335655698,0.719182138,0.428097946,0.689761864,9.01E-08,3.447935302,-0.354675115,0.102022554,-0.499062371,-0.197584151,31.968,0.018080628,31.93,31.99,0.176370831,-0.000213601,1,0,0
0,0.010526285,0.001109153,0.006192482,0.015137178,-0.01052628,0.001109153,-0.01513717,-0.006192479,-7.24E-06,7.63E-07,-1.04E-05,-4.26E-06,-7.24E-06,7.63E-07,-1.04E-05,-4.26E-06,-0.322765837,13.26732991,-46.6,80.4,0.319891698,0.000989659,0.317071949,0.322243685,0.341470741,0.056214111,0.207580223,0.481655391,0.258571255,0.479993081,1.26E-07,2.204057238,-0.121432123,0.04622498,-0.236472896,-0.061979509,31.95216216,0.012404983,31.91,31.97,0.167420814,1.30E-05,1,0,0
0,0.010851809,0.000553106,0.008256642,0.012384963,-0.010851804,0.000553106,-0.012384958,-0.008256638,-7.47E-06,3.81E-07,-8.52E-06,-5.68E-06,-7.47E-06,3.81E-07,-8.52E-06,-5.68E-06,0.522204635,19.74169422,-103.66,110.42,0.320028542,0.000860498,0.31728109,0.322167073,0.35997614,0.054088659,0.26680784,0.52278145,0.274391939,0.496922377,1.58E-07,2.463264787,-0.134664519,0.037091036,-0.251992298,-0.100202112,31.94854545,0.009228056,31.93,31.97,0.167326173,-5.63E-05,1,0,0
0,0.011152071,0.00038841,0.007568589,0.012384963,-0.011152066,0.00038841,-0.012384958,-0.007568585,-7.67E-06,2.67E-07,-8.52E-06,-5.21E-06,-7.67E-06,2.67E-07,-8.52E-06,-5.21E-06,-0.086425339,13.76318443,-49.66,54.06,0.320036404,0.001266496,0.316159367,0.32312137,0.435338942,0.143947549,0.222474912,0.696147961,0.334480286,0.623095786,1.62E-07,2.78423977,-0.209812349,0.156696522,-0.418121386,0.000825803,31.96873874,0.013630723,31.95,32,0.149321267,0.000188312,1,0,0
0,0.01452151,0.001705786,0.008256642,0.024081873,-0.014521503,0.001705785,-0.024081862,-0.008256638,-9.99E-06,1.17E-06,-1.66E-05,-5.68E-06,-9.99E-06,1.17E-06,-1.66E-05,-5.68E-06,-0.275056561,23.2656705,-75.76,121.48,0.32048022,0.001002653,0.317421741,0.322182647,0.387239389,0.060417225,0.270513532,0.498472204,0.301932985,0.569199162,1.01E-07,2.456317521,-0.144138443,0.060377782,-0.255201824,-0.043519869,31.98309091,0.013194038,31.95,32,0.140271493,0.000119739,1,0,0
0,0.013262932,0.000465518,0.012384963,0.015137178,-0.013262926,0.000465518,-0.01513717,-0.012384958,-9.13E-06,3.20E-07,-1.04E-05,-8.52E-06,-9.13E-06,3.20E-07,-1.04E-05,-8.52E-06,0.369050311,14.77114397,-73.81,68.07,0.318657017,0.000948819,0.315932388,0.321467139,0.39806065,0.114503174,0.228950724,0.596169001,0.296559615,0.583274803,1.37E-07,2.942505952,-0.226623718,0.108316041,-0.392755807,-0.110240936,31.99108108,0.010851276,31.97,32.03,0.162803844,-7.84E-05,1,0,0
0,0.013120496,0.000218062,0.012384963,0.01376107,-0.01312049,0.000218062,-0.013761064,-0.012384958,-9.03E-06,1.50E-07,-9.47E-06,-8.52E-06,-9.03E-06,1.50E-07,-9.47E-06,-8.52E-06,-0.151826923,11.57102048,-66.73,43.2,0.319481647,0.001217094,0.316262858,0.321958719,0.35393557,0.088914297,0.195529882,0.505481094,0.262100973,0.510772428,1.72E-07,2.359987179,-0.150395134,0.070532167,-0.243709777,-0.007739201,31.98418182,0.011550822,31.95,32,0.171945701,-7.93E-05,1,0,0
0,0.012706055,0.000368804,0.011008856,0.01376107,-0.012706049,0.000368804,-0.013761064,-0.011008851,-8.74E-06,2.54E-07,-9.47E-06,-7.57E-06,-8.74E-06,2.54E-07,-9.47E-06,-7.57E-06,0.056676088,10.65011427,-50.84,31.33,0.320098088,0.000915639,0.316959591,0.322015662,0.451731678,0.122517647,0.231787515,0.628702691,0.358059083,0.608162747,9.18E-08,2.574747907,-0.223407081,0.125007171,-0.390600872,-0.008154696,31.96567568,0.016745128,31.93,32,0.171848502,-0.000317655,1,0,0
0,0.012554642,0.000307219,0.01169691,0.013073017,-0.012554636,0.000307219,-0.013073011,-0.011696904,-8.64E-06,2.11E-07,-8.99E-06,-8.05E-06,-8.64E-06,2.11E-07,-8.99E-06,-8.05E-06,-0.032007919,15.75495617,-98.05,70.69,0.319958324,0.000906361,0.317692424,0.322004836,0.373936305,0.059971117,0.25880558,0.470819162,0.295011637,0.526992536,1.50E-07,2.228888728,-0.151278195,0.064111886,-0.229006386,-0.041545845,31.93468468,0.015411463,31.91,31.97,0.049773756,-0.000304317,1,0,0
0,0.012539075,0.000290566,0.01169691,0.013073017,-0.012539069,0.000290566,-0.013073011,-0.011696904,-8.63E-06,2.00E-07,-8.99E-06,-8.05E-06,-8.63E-06,2.00E-07,-8.99E-06,-8.05E-06,0.073295647,10.93999702,-31.39,30.24,0.319546987,0.001054055,0.316231623,0.321639295,0.441428821,0.047885664,0.291661558,0.518185113,0.326625837,0.586959181,1.14E-07,2.440832726,-0.235517419,0.024305578,-0.261126857,-0.138410964,31.90127273,0.016954972,31.87,31.93,0.18089316,-0.000348398,1,0,0
0,0.01233982,0.000433063,0.009632749,0.01376107,-0.012339814,0.000433063,-0.013761064,-0.009632745,-8.49E-06,2.98E-07,-9.47E-06,-6.63E-06,-8.49E-06,2.98E-07,-9.47E-06,-6.63E-06,0.417664027,14.73329765,-55.13,79.88,0.319199892,0.000969747,0.316176295,0.321858294,0.269759397,0.057525613,0.16044735,0.378779947,0.215840766,0.421526372,1.09E-07,1.854460882,-0.076775103,0.044770525,-0.140988267,-0.002119766,31.87342342,0.017983751,31.83,31.91,0.167420814,-0.00028589,1,0,0
0,0.023210131,0.004553399,0.001376107,0.039907104,-0.023207007,0.004569238,-0.039907086,0.001376106,-1.60E-05,3.14E-06,-2.75E-05,9.47E-07,-1.60E-05,3.14E-06,-2.75E-05,9.47E-07,-0.384824661,31.03169611,-79.86,164.31,0.315741585,0.001757544,0.31180136,0.320444617,0.426881818,0.140809644,0.246001279,0.759332742,0.349633868,0.607309806,9.05E-08,3.19332709,-0.371435698,0.163463314,-0.680028361,-0.143675326,31.82290909,0.030817511,31.77,31.87,0.067873303,-0.000806708,1,0,0