,net_acc_mean,net_acc_std,net_acc_min,net_acc_max,ACC_x_mean,ACC_x_std,ACC_x_min,ACC_x_max,ACC_y_mean,ACC_y_std,ACC_y_min,ACC_y_max,ACC_z_mean,ACC_z_std,ACC_z_min,ACC_z_max,BVP_mean,BVP_std,BVP_min,BVP_max,EDA_mean,EDA_std,EDA_min,EDA_max,EDA_phasic_mean,EDA_phasic_std,EDA_phasic_min,EDA_phasic_max,EDA_smna_mean,EDA_smna_std,EDA_smna_min,EDA_smna_max,EDA_tonic_mean,EDA_tonic_std,EDA_tonic_min,EDA_tonic_max,TEMP_mean,TEMP_std,TEMP_min,TEMP_max,BVP_peak_freq,TEMP_slope,0,1,2
0,0.036375874,0.008855698,0.006880535,0.064677031,0.036375857,0.008855694,0.006880532,0.064677001,2.50E-05,6.09E-06,4.73E-06,4.45E-05,2.50E-05,6.09E-06,4.73E-06,4.45E-05,0.585500283,49.47003294,-153.86,145.64,0.288421478,0.006140112,0.273471858,0.302861967,0.0083245,0.008400463,0.000134624,0.035331466,0.006319295,0.023561452,5.04E-08,0.158125574,-0.75680655,0.008915585,-0.770627143,-0.744338666,29.3709009,0.015278174,29.33,29.41,0.140192199,-3.33E-06,0,1,0
0,0.024556661,0.005894792,0.007568589,0.052980121,0.02455665,0.005894789,0.007568585,0.052980096,1.69E-05,4.06E-06,5.21E-06,3.65E-05,1.69E-05,4.06E-06,5.21E-06,3.65E-05,-0.314230769,24.51155156,-79.6,107.41,0.297098924,0.005434019,0.284549333,0.304997148,0.003121134,0.003164441,7.22E-05,0.009928496,0.001689357,0.011217363,8.75E-08,0.091557017,-0.736640128,0.008357279,-0.753341553,-0.72504835,29.40090909,0.018218146,29.35,29.43,0.131221719,0.000191872,0,1,0
0,0.028482614,0.00528126,0.011008856,0.053668175,0.0284826,0.005281257,0.011008851,0.05366815,1.96E-05,3.63E-06,7.57E-06,3.69E-05,1.96E-05,3.63E-06,7.57E-06,3.69E-05,-0.868744344,32.59169382,-136.38,154.81,0.283755224,0.003045382,0.274082589,0.294443824,0.004106181,0.004773988,2.56E-05,0.018818123,0.003373827,0.017126862,5.89E-08,0.134131905,-0.760935471,0.004655133,-0.769903722,-0.753779693,29.41666667,0.018075584,29.39,29.47,0.126696833,0.000365391,0,1,0
0,0.026756253,0.00519586,0.017889392,0.047475693,0.026756241,0.005195857,0.017889383,0.047475671,1.84E-05,3.58E-06,1.23E-05,3.27E-05,1.84E-05,3.58E-06,1.23E-05,3.27E-05,0.909174675,31.61560735,-103.07,132.43,0.284358551,0.004786704,0.267809731,0.292703522,0.006537242,0.004046969,0.000738745,0.015002026,0.004872985,0.018384761,4.83E-08,0.145070726,-0.762369702,0.00771449,-0.772582481,-0.749901761,29.40454545,0.023027113,29.35,29.45,0.126625212,-0.00061096,0,1,0
0,0.029169889,0.001741824,0.021329659,0.043347372,0.029169875,0.001741823,0.021329649,0.043347352,2.01E-05,1.20E-06,1.47E-05,2.98E-05,2.01E-05,1.20E-06,1.47E-05,2.98E-05,-0.471131222,20.1353856,-58.62,64.31,0.277828824,0.001627948,0.271893823,0.281754642,0.000838461,0.001205576,5.82E-06,0.004863224,0.000692208,0.004837195,9.47E-08,0.04964181,-0.768142514,0.003072704,-0.777144918,-0.763717699,29.39468468,0.017999991,29.37,29.43,0.122171946,0.000447525,0,1,0
0,0.02679055,0.003232429,0.01376107,0.054356228,0.026790537,0.003232428,0.013761064,0.054356203,1.84E-05,2.22E-06,9.47E-06,3.74E-05,1.84E-05,2.22E-06,9.47E-06,3.74E-05,0.565737705,25.76090593,-101.96,132.13,0.275388976,0.004818185,0.265607996,0.286728963,0.004963305,0.005171845,5.02E-05,0.017136964,0.003794717,0.019237924,6.18E-08,0.153231518,-0.776295895,0.004901125,-0.782679277,-0.769031166,29.41472727,0.014753064,29.39,29.45,0.144714528,-0.00010387,0,1,0
0,0.028045186,0.004531598,0.014449124,0.044723479,0.028045173,0.004531596,0.014449117,0.044723458,1.93E-05,3.12E-06,9.94E-06,3.08E-05,1.93E-05,3.12E-06,9.94E-06,3.08E-05,-0.757522624,25.43863357,-90.37,96.76,0.275698581,0.003820746,0.263704689,0.281398049,0.00386298,0.005423615,2.03E-06,0.020514273,0.003674651,0.01398224,4.38E-08,0.099775315,-0.774753288,0.007781934,-0.792230291,-0.76858832,29.43216216,0.01118279,29.41,29.47,0.122171946,9.58E-05,0,1,0
0,0.027693376,0.008381825,0,0.05848455,0.027662229,0.008484005,-0.004816372,0.058484522,1.90E-05,5.84E-06,-3.31E-06,4.02E-05,1.90E-05,5.84E-06,-3.31E-06,4.02E-05,0.723800905,38.13685312,-186.6,231.46,0.273439548,0.005416336,0.262221273,0.283340898,0.005347891,0.003774219,5.57E-05,0.012367056,0.003313167,0.014722499,9.44E-08,0.104611859,-0.780368374,0.010999146,-0.79409955,-0.764775372,29.39036364,0.018087026,29.35,29.41,0.076923077,-9.59E-05,0,1,0
0,0.02595067,0.003740506,0.008256642,0.050915961,0.025950658,0.003740504,0.008256638,0.050915937,1.79E-05,2.57E-06,5.68E-06,3.50E-05,1.79E-05,2.57E-06,5.68E-06,3.50E-05,-0.203391747,23.5547647,-81.45,146.35,0.278665509,0.002343872,0.267508201,0.283336453,0.002038663,0.003904856,6.05E-07,0.013936724,0.001910021,0.011617146,5.26E-08,0.116562244,-0.767886422,0.004014357,-0.777683538,-0.764367547,29.44873874,0.019036102,29.41,29.47,0.13566987,0.000465953,0,1,0
0,0.025245493,0.004829738,0.018577445,0.048163747,0.025245481,0.004829735,0.018577436,0.048163724,1.74E-05,3.32E-06,1.28E-05,3.31E-05,1.74E-05,3.32E-06,1.28E-05,3.31E-05,0.783755656,26.23477212,-62.68,122.13,0.275687656,0.003216937,0.266382086,0.287599975,0.004890728,0.003644853,0.000469651,0.013058912,0.003926039,0.0162571,8.48E-08,0.135347223,-0.775761803,0.001900573,-0.77905313,-0.772875724,29.45472727,0.014753064,29.41,29.47,0.131221719,6.20E-05,0,1,0
0,0.036786374,0.003555962,0.017201338,0.065365085,0.036786356,0.003555961,0.01720133,0.065365054,2.53E-05,2.45E-06,1.18E-05,4.50E-05,2.53E-05,2.45E-06,1.18E-05,4.50E-05,-0.401469757,34.96848787,-122.75,182.48,0.279240172,0.002082613,0.276169387,0.285177153,0.001231674,0.00158195,3.70E-06,0.008207191,0.000496383,0.003382847,1.00E-07,0.033479623,-0.766064722,0.002906013,-0.772596735,-0.761282332,29.49126126,0.028699032,29.45,29.53,0.126625212,0.000816953,0,1,0
0,0.037504365,0.004589711,0.008256642,0.052292068,0.037504348,0.004589709,0.008256638,0.052292043,2.58E-05,3.16E-06,5.68E-06,3.60E-05,2.58E-05,3.16E-06,5.68E-06,3.60E-05,0.016595023,41.54945048,-196.48,162.9,0.282616165,0.002945051,0.274949791,0.291224491,0.001238321,0.001634843,2.20E-05,0.00652021,0.000897305,0.007066962,7.53E-08,0.068951486,-0.759954993,0.003855695,-0.765127511,-0.755050773,29.51472727,0.015708081,29.49,29.55,0.090497738,-0.000188265,0,1,0
0,0.036304942,0.005384476,0.011008856,0.067429245,0.036304925,0.005384473,0.011008851,0.067429213,2.50E-05,3.70E-06,7.57E-06,4.64E-05,2.50E-05,3.70E-06,7.57E-06,4.64E-05,-0.090774449,29.83703015,-96.25,158.33,0.281457085,0.002469119,0.277316943,0.289974446,0.002346705,0.002573232,3.69E-06,0.009458933,0.001808751,0.010859232,8.55E-08,0.101640843,-0.763161158,0.003035185,-0.766422374,-0.756533774,29.52963964,0.027637549,29.49,29.57,0.122102883,0.000752545,0,1,0
0,0.030525759,0.006279945,0.008944696,0.051604014,0.030525745,0.006279943,0.008944692,0.05160399,2.10E-05,4.32E-06,6.15E-06,3.55E-05,2.10E-05,4.32E-06,6.15E-06,3.55E-05,-0.217867647,27.79911038,-110.79,150.05,0.279688865,0.004759727,0.271661275,0.292083414,0.008150327,0.009720742,3.54E-05,0.029772277,0.006346894,0.029455728,4.28E-08,0.253536461,-0.772256216,0.005139629,-0.779860254,-0.764331905,29.60636364,0.022911977,29.55,29.65,0.135746606,0.000604828,0,1,0
0,0.030603593,0.003930187,0.026834087,0.050227907,0.030603579,0.003930185,0.026834075,0.050227884,2.11E-05,2.70E-06,1.85E-05,3.46E-05,2.11E-05,2.70E-06,1.85E-05,3.46E-05,0.53543552,20.40822292,-70.86,46.24,0.278712674,0.002142952,0.272854462,0.281633939,0.001222042,0.001576439,3.56E-06,0.00634913,0.001256017,0.006973913,1.08E-07,0.059782705,-0.766872555,0.003041922,-0.772339031,-0.763829875,29.66081081,0.014651208,29.63,29.69,0.135746606,0.000271323,0,1,0
0,0.029858413,0.004639911,0.019265499,0.056420389,0.029858399,0.004639909,0.01926549,0.056420362,2.05E-05,3.19E-06,1.33E-05,3.88E-05,2.05E-05,3.19E-06,1.33E-05,3.88E-05,-0.577563595,28.21124346,-139.03,171.38,0.28527802,0.00427099,0.273679619,0.292812213,0.003794052,0.002916729,0.000366078,0.011532004,0.002639111,0.01192542,7.57E-08,0.101030099,-0.757954035,0.00724943,-0.771814124,-0.749517794,29.68672727,0.014654139,29.67,29.71,0.054267948,0.000106756,0,1,0
0,0.030429245,0.009520408,0,0.053668175,0.030380973,0.009673293,-0.006880532,0.05366815,2.09E-05,6.66E-06,-4.73E-06,3.69E-05,2.09E-05,6.66E-06,-4.73E-06,3.69E-05,0.327822398,60.23828098,-304.8,166.71,0.282702187,0.003774974,0.273763715,0.292860445,0.004634288,0.003861297,0.000695169,0.016960699,0.00348026,0.011956605,6.15E-08,0.059867125,-0.763430972,0.00427142,-0.768213895,-0.752999775,29.77774775,0.053096626,29.69,29.87,0.108597285,0.00157529,0,1,0
0,0.030191851,0.006148187,0.009632749,0.054356228,0.030191837,0.006148184,0.009632745,0.054356203,2.08E-05,4.23E-06,6.63E-06,3.74E-05,2.08E-05,4.23E-06,6.63E-06,3.74E-05,-0.176546071,33.94589516,-154.53,145.12,0.284747809,0.003505775,0.276314992,0.295501915,0.002427722,0.002038168,1.35E-05,0.006463512,0.00183163,0.00948883,6.09E-08,0.062279714,-0.757501287,0.005450265,-0.765639262,-0.748430427,30.01672727,0.080239517,29.87,30.13,0.067834935,0.002473863,0,1,0
0,0.023888845,0.006494731,0,0.039907104,0.023793876,0.006834422,-0.005504426,0.039907086,1.64E-05,4.70E-06,-3.79E-06,2.75E-05,1.64E-05,4.70E-06,-3.79E-06,2.75E-05,0.682794118,29.41528804,-161.04,169.07,0.290800297,0.002532489,0.281951912,0.296170917,0.001999138,0.00289255,4.21E-07,0.010083757,0.001632291,0.007927362,6.82E-08,0.057238052,-0.746446115,0.004046392,-0.75599168,-0.74180726,30.14801802,0.035306121,30.11,30.21,0.140271493,0.001014742,0,1,0
0,0.014338724,0.001552417,0.004816375,0.028210195,0.014338718,0.001552416,0.004816372,0.028210181,9.87E-06,1.07E-06,3.31E-06,1.94E-05,9.87E-06,1.07E-06,3.31E-06,1.94E-05,-0.978677219,35.59847162,-119.66,89.06,0.285328057,0.001630702,0.281463794,0.288837356,0.000929928,0.000939448,2.23E-06,0.002872511,0.000637567,0.003057346,8.46E-08,0.0212055,-0.755190356,0.002608667,-0.75835951,-0.750855864,30.24153153,0.020890025,30.19,30.27,0.122102883,0.000543875,0,1,0
0,0.014428109,0.001351798,0.01169691,0.021329659,0.014428102,0.001351797,0.011696904,0.021329649,9.93E-06,9.30E-07,8.05E-06,1.47E-05,9.93E-06,9.30E-07,8.05E-06,1.47E-05,0.194128959,28.67364494,-74.66,67.54,0.28640458,0.001902303,0.280172733,0.289124853,0.000589864,0.000691427,1.90E-06,0.002410589,0.000457955,0.002615624,6.77E-08,0.018580587,-0.752470166,0.00250666,-0.758050033,-0.748074181,30.29454545,0.013391745,30.27,30.31,0.126696833,-1.58E-05,0,1,0
0,0.013073795,0.003975331,0,0.028898248,0.011839341,0.006823285,-0.016513277,0.028898234,8.15E-06,4.69E-06,-1.14E-05,1.99E-05,8.15E-06,4.69E-06,-1.14E-05,1.99E-05,0.092488688,35.55387375,-132.41,188.86,0.293756275,0.014131271,0.285903164,0.361395236,0.041154383,0.040046195,0.000570445,0.168541636,0.031676421,0.133535275,2.78E-08,1.369801271,-0.780626716,0.024168327,-0.816405247,-0.746088257,30.30225225,0.011754599,30.29,30.33,0.122171946,0.000229203,0,1,0
0,0.014361171,0.002923065,0.001376107,0.021329659,0.014361165,0.002923063,0.001376106,0.021329649,9.88E-06,2.01E-06,9.47E-07,1.47E-05,9.88E-06,2.01E-06,9.47E-07,1.47E-05,-0.119632561,31.94569401,-90.48,129.64,0.290179892,0.001145125,0.286962368,0.293191725,0.000159473,0.000204814,4.85E-07,0.000692826,9.79E-05,0.000717411,1.13E-07,0.005672741,-0.745860371,0.000461131,-0.746602493,-0.744774645,30.34236364,0.020357142,30.31,30.39,0.126625212,0.000445056,0,1,0
0,0.017842691,0.001055915,0.007568589,0.022705766,0.017842683,0.001055914,0.007568585,0.022705756,1.23E-05,7.27E-07,5.21E-06,1.56E-05,1.23E-05,7.27E-07,5.21E-06,1.56E-05,0.097867647,24.97032677,-82.44,96.98,0.291596255,0.001222841,0.287531617,0.293881274,2.17E-05,5.08E-05,2.77E-07,0.000265659,4.06E-07,4.48E-07,1.12E-07,3.51E-06,-0.743020483,0.000608656,-0.744718686,-0.742486568,30.40027027,0.023228573,30.37,30.45,0.135746606,0.000592138,0,1,0
0,0.026100164,0.005552569,0.012384963,0.052292068,0.026100151,0.005552567,0.012384958,0.052292043,1.80E-05,3.82E-06,8.52E-06,3.60E-05,1.80E-05,3.82E-06,8.52E-06,3.60E-05,0.003595252,31.41266004,-104.02,208.27,0.294129339,0.002412382,0.289052323,0.303198051,0.003104856,0.003175492,2.89E-07,0.01158901,0.002411002,0.00839222,4.66E-08,0.047850053,-0.741899168,0.001818075,-0.743788798,-0.738061798,30.44563636,0.014618001,30.41,30.47,0.153759186,0.000288529,0,1,0
0,0.02612891,0.006774939,0.008944696,0.046099586,0.026128898,0.006774936,0.008944692,0.046099564,1.80E-05,4.66E-06,6.15E-06,3.17E-05,1.80E-05,4.66E-06,6.15E-06,3.17E-05,0.070141403,24.36830345,-113.83,96.41,0.293499988,0.003432479,0.281404477,0.304271184,0.002434976,0.003071693,2.12E-06,0.011230106,0.001868431,0.010212885,4.10E-08,0.08267321,-0.742149386,0.004833689,-0.748819259,-0.736405866,30.47666667,0.014035562,30.45,30.51,0.162895928,0.000280449,0,1,0
0,0.019513011,0.004554023,0.008944696,0.042659319,0.019513002,0.004554021,0.008944692,0.042659298,1.34E-05,3.13E-06,6.15E-06,2.94E-05,1.34E-05,3.13E-06,6.15E-06,2.94E-05,0.346566742,30.86382735,-213.09,164.58,0.292440599,0.007546006,0.279291898,0.31468581,0.00924102,0.009907364,2.24E-05,0.038953837,0.009380231,0.025563175,5.10E-08,0.15264554,-0.750780401,0.005003801,-0.758227036,-0.742615387,30.61290909,0.063293622,30.51,30.71,0.095022624,0.001925929,0,1,0
0,0.032482509,0.002370452,0.022705766,0.03715489,0.032482493,0.002370451,0.022705756,0.037154873,2.23E-05,1.63E-06,1.56E-05,2.56E-05,2.23E-05,1.63E-06,1.56E-05,2.56E-05,-0.280322216,18.50391091,-94.43,67.09,0.301289319,0.003829947,0.293623391,0.309119666,0.007376834,0.008989596,0.000222828,0.02868161,0.003610803,0.012434563,6.67E-08,0.076108707,-0.733599882,0.004036146,-0.742419244,-0.729412182,30.72135135,0.017731048,30.69,30.75,0.126625212,0.000329238,0,1,0
0,0.014170478,0.011922716,0.002064161,0.042659319,0.009223338,0.016058746,-0.010320798,0.042659298,6.35E-06,1.10E-05,-7.10E-06,2.94E-05,6.35E-06,1.10E-05,-7.10E-06,2.94E-05,0.088602941,28.05650799,-129.6,124.57,0.303620899,0.006550434,0.292958334,0.33035062,0.006089825,0.008945885,0.000175551,0.036155661,0.004508101,0.027007375,8.47E-08,0.221263916,-0.728242535,0.005455041,-0.739038334,-0.721339933,30.74636364,0.012984415,30.71,30.77,0.081447964,0.000111264,0,1,0
0,0.006109293,0.00697482,0,0.062612871,-0.001659102,0.009122438,-0.013761064,0.062612841,-1.14E-06,6.28E-06,-9.47E-06,4.31E-05,-1.14E-06,6.28E-06,-9.47E-06,4.31E-05,0.242871679,31.02815403,-148.72,218.48,0.288106546,0.006082098,0.281266289,0.314090793,0.005224928,0.007856289,6.94E-06,0.031539921,0.004473617,0.026573919,4.38E-08,0.257024752,-0.754314906,0.007221895,-0.762457877,-0.73930196,30.77648649,0.017840568,30.75,30.81,0.072357264,0.000359073,0,1,0
0,0.010881987,0.007036268,0.002752214,0.022705766,0.006470346,0.011227696,-0.01513717,0.022705756,4.45E-06,7.73E-06,-1.04E-05,1.56E-05,4.45E-06,7.73E-06,-1.04E-05,1.56E-05,-0.352053167,22.66481514,-79.74,86.39,0.288362033,0.002560726,0.283960531,0.297170495,0.001971577,0.002193623,6.73E-06,0.007264319,0.00103484,0.007662111,1.27E-07,0.073080714,-0.750853528,0.002710541,-0.75451211,-0.746410044,30.78381818,0.01612349,30.75,30.81,0.07239819,0.000175281,0,1,0
0,0.009709805,0.004963347,0.001376107,0.019953552,0.001513873,0.010799222,-0.011696904,0.019953543,1.04E-06,7.43E-06,-8.05E-06,1.37E-05,1.04E-06,7.43E-06,-8.05E-06,1.37E-05,-0.18316563,32.22128076,-164.5,222.47,0.285298631,0.006577434,0.272730976,0.307024512,0.007401563,0.011278375,3.65E-05,0.040533686,0.008326367,0.045400612,5.62E-08,0.441540391,-0.761476445,0.008240582,-0.774244099,-0.74768598,30.80945946,0.018880269,30.77,30.83,0.122102883,-0.000309231,0,1,0
0,0.026897133,0.012547171,0,0.061236764,0.02540582,0.015343753,-0.013761064,0.061236735,1.75E-05,1.06E-05,-9.47E-06,4.21E-05,1.75E-05,1.06E-05,-9.47E-06,4.21E-05,-0.278105204,49.4318083,-192.39,191.91,0.284645757,0.007250001,0.273275646,0.302573287,0.019104898,0.01122444,0.003583017,0.051720939,0.012314948,0.036662057,6.13E-08,0.18374974,-0.774432679,0.004553715,-0.778793766,-0.764202914,30.81309091,0.014569299,30.79,30.85,0.131221719,0.000266078,0,1,0
0,0.028116794,0.007984731,0.002064161,0.049539854,0.02811678,0.007984727,0.00206416,0.04953983,1.93E-05,5.49E-06,1.42E-06,3.41E-05,1.93E-05,5.49E-06,1.42E-06,3.41E-05,0.176097285,38.6975604,-132.57,258.5,0.283412923,0.005091419,0.272184948,0.300148337,0.00711269,0.006557618,0.000196995,0.022899857,0.005897827,0.024979964,5.02E-08,0.176907568,-0.764481122,0.003856596,-0.770535578,-0.757803785,30.84855856,0.01307269,30.83,30.87,0.126696833,0.000208494,0,1,0
0,0.030664641,0.008357525,0.006880535,0.055044282,0.030664626,0.008357521,0.006880532,0.055044256,2.11E-05,5.75E-06,4.73E-06,3.79E-05,2.11E-05,5.75E-06,4.73E-06,3.79E-05,0.174946297,47.65069184,-186.39,167.84,0.281826265,0.004534983,0.273763916,0.294400902,0.009623826,0.006717324,0.001280798,0.027904887,0.007016399,0.027878659,5.30E-08,0.187426469,-0.769847988,0.002802134,-0.773388714,-0.76504513,30.85,0.013211565,30.83,30.87,0.131147541,3.17E-05,0,1,0
0,0.031320446,0.002178108,0.02339382,0.038530997,0.031320431,0.002178107,0.023393809,0.038530979,2.16E-05,1.50E-06,1.61E-05,2.65E-05,2.16E-05,1.50E-06,1.61E-05,2.65E-05,0.097273756,20.0445442,-77.91,76.86,0.282111677,0.001816053,0.27777137,0.286490598,0.001298632,0.00175691,7.12E-07,0.005481041,0.000755653,0.004440631,1.17E-07,0.036291063,-0.761149766,0.004269655,-0.770834857,-0.757172348,30.85468468,0.012862392,30.83,30.89,0.131221719,-9.09E-05,0,1,0
0,0.030275912,5.67E-05,0.029586302,0.030962409,0.030275897,5.67E-05,0.029586288,0.030962394,2.08E-05,3.90E-08,2.04E-05,2.13E-05,2.08E-05,3.90E-08,2.04E-05,2.13E-05,-0.080011306,12.06236803,-30.75,16.09,0.284535206,0.001174649,0.280622976,0.286812666,0.000342735,0.000483854,1.42E-06,0.001826277,0.000183323,0.001564814,1.13E-07,0.016045021,-0.755822962,0.00096089,-0.757158052,-0.754299196,30.85127273,0.013558566,30.83,30.89,0.131147541,-0.000189257,0,1,0
0,0.028009383,0.003620237,0.021329659,0.051604014,0.028009369,0.003620236,0.021329649,0.05160399,1.93E-05,2.49E-06,1.47E-05,3.55E-05,1.93E-05,2.49E-06,1.47E-05,3.55E-05,0.16219457,27.39578956,-105.31,115.97,0.285694279,0.001432975,0.281281173,0.288426395,0.000438965,0.000598294,1.66E-06,0.002037873,0.000336332,0.002479132,8.23E-08,0.022180774,-0.753853461,0.001386827,-0.755548233,-0.751791336,30.83288288,0.014910386,30.81,30.85,0.131221719,-0.000141804,0,1,0
0,0.023601402,0.009604899,0,0.08394253,0.023590506,0.009631597,-0.003440266,0.08394249,1.62E-05,6.63E-06,-2.37E-06,5.78E-05,1.62E-05,6.63E-06,-2.37E-06,5.78E-05,0.511254946,47.02775165,-149.72,212.85,0.292309163,0.005522811,0.281956608,0.302518365,0.004028821,0.005055013,9.95E-07,0.020115458,0.003123605,0.017559146,7.54E-08,0.156087616,-0.74597031,0.006138581,-0.751810381,-0.733601359,30.8254955,0.015581159,30.79,30.85,0.09044658,-9.60E-05,0,1,0
0,0.020064077,0.003167393,0.007568589,0.032338516,0.020064067,0.003167392,0.007568585,0.0323385,1.38E-05,2.18E-06,5.21E-06,2.23E-05,1.38E-05,2.18E-06,5.21E-06,2.23E-05,-0.498653846,35.40768388,-113.48,174.33,0.290294096,0.005415079,0.282621988,0.300414638,0.002380756,0.002452276,0.000105636,0.009366726,0.001816585,0.007673633,6.74E-08,0.055769903,-0.747748916,0.008176758,-0.75868179,-0.733403521,30.84072727,0.019386457,30.81,30.87,0.131221719,0.000487884,0,1,0
0,0.013241917,0.007530415,0.000688054,0.044035426,0.013241911,0.007530411,0.000688053,0.044035405,9.11E-06,5.18E-06,4.73E-07,3.03E-05,9.11E-06,5.18E-06,4.73E-07,3.03E-05,0.071442308,25.43048738,-68.74,162.64,0.293394712,0.003207047,0.28736244,0.302501511,0.003655776,0.00512256,3.94E-05,0.02065059,0.002805236,0.019890864,4.95E-08,0.205318494,-0.74365145,0.003413895,-0.747317122,-0.737437441,30.90423423,0.021204689,30.87,30.95,0.131221719,0.000535451,0,1,0
0,0.010216505,0.007980906,0.002064161,0.040595158,0.0102165,0.007980902,0.00206416,0.040595139,7.03E-06,5.49E-06,1.42E-06,2.79E-05,7.03E-06,5.49E-06,1.42E-06,2.79E-05,-0.318643301,26.38420806,-93.32,87.85,0.296152242,0.004495923,0.286211641,0.308429383,0.004355798,0.006479694,8.31E-06,0.022554272,0.0033522,0.012998174,5.68E-08,0.077446542,-0.739315283,0.000742973,-0.740399037,-0.737445944,30.93872727,0.025516807,30.89,30.99,0.058790277,0.000663616,0,1,0
0,0.020880556,0.005371198,0.011008856,0.048163747,0.020880547,0.005371195,0.011008851,0.048163724,1.44E-05,3.70E-06,7.57E-06,3.31E-05,1.44E-05,3.70E-06,7.57E-06,3.31E-05,0.116510181,14.90353348,-69.26,72.52,1.458391471,0.044759994,1.388695064,1.578254075,0.129942126,0.077594741,0.021269594,0.310892827,0.109088993,0.238272467,3.07E-08,1.609212952,1.169459827,0.028612963,1.128016891,1.215410003,31.12636364,0.018326696,31.09,31.17,0.095022624,0.00043135,0,0,1
0,0.018023892,0.001203398,0.012384963,0.02339382,0.018023884,0.001203397,0.012384958,0.023393809,1.24E-05,8.28E-07,8.52E-06,1.61E-05,1.24E-05,8.28E-07,8.52E-06,1.61E-05,-0.134714528,5.273242357,-28.34,22.8,1.564539544,0.045139541,1.48323674,1.643810283,0.132962547,0.045998039,0.04899897,0.255368931,0.096025204,0.22520441,8.15E-08,1.156161467,1.35220604,0.068853387,1.220597664,1.473297614,31.13954955,0.0162961,31.11,31.17,0.284906727,-0.000256581,0,0,1
0,0.022076867,0.006369971,0.013073017,0.04678764,0.022076856,0.006369968,0.013073011,0.046787618,1.52E-05,4.38E-06,8.99E-06,3.22E-05,1.52E-05,4.38E-06,8.99E-06,3.22E-05,0.000808824,15.35670468,-54.79,50.63,1.66153164,0.036848129,1.584571441,1.761254609,0.136559265,0.045286729,0.037200152,0.24891401,0.113819497,0.216136315,7.66E-08,0.963265753,1.518415071,0.049438415,1.472925407,1.646345371,31.11864865,0.015566567,31.09,31.15,0.135746606,-4.63E-05,0,0,1
0,0.029098282,0.010824507,0.01169691,0.050227907,0.029098268,0.010824502,0.011696904,0.050227884,2.00E-05,7.45E-06,8.05E-06,3.46E-05,2.00E-05,7.45E-06,8.05E-06,3.46E-05,0.718377614,30.68428446,-185.35,177.4,1.907319549,0.083198259,1.774121606,2.064838928,0.319833813,0.126258458,0.158911314,0.590749497,0.250251115,0.459518657,4.57E-08,2.508505882,1.765235313,0.06083163,1.651348782,1.942208161,31.08236364,0.018484749,31.05,31.13,0.085924251,-0.000373645,0,0,1
0,0.039159897,0.00257045,0.001376107,0.057108443,0.039159878,0.002570448,0.001376106,0.057108415,2.69E-05,1.77E-06,9.47E-07,3.93E-05,2.69E-05,1.77E-06,9.47E-07,3.93E-05,-0.777850679,17.03417736,-60.8,100.41,2.091090754,0.063007454,1.967884867,2.204674902,0.253422392,0.109500631,0.098505494,0.444932215,0.184680942,0.379678725,5.91E-08,2.091461112,2.153672986,0.125845245,1.949258396,2.466195148,31.10189189,0.027948263,31.07,31.15,0.067873303,0.000765532,0,0,1
0,0.036057892,0.006322523,0.013073017,0.049539854,0.036057875,0.00632252,0.013073011,0.04953983,2.48E-05,4.35E-06,8.99E-06,3.41E-05,2.48E-05,4.35E-06,8.99E-06,3.41E-05,0.120260034,25.88129187,-110.53,97.74,2.225919842,0.037440546,2.146887902,2.293642143,0.133794377,0.043871574,0.034247986,0.218340728,0.101852414,0.227643669,9.95E-08,1.238179987,2.509102931,0.033119303,2.45438017,2.558852088,31.12618182,0.013347238,31.09,31.15,0.09044658,-0.000200257,0,0,1
0,0.028244442,0.002731295,0.019265499,0.044035426,0.028244428,0.002731294,0.01926549,0.044035405,1.94E-05,1.88E-06,1.33E-05,3.03E-05,1.94E-05,1.88E-06,1.33E-05,3.03E-05,-0.168026018,12.01018619,-49.81,49.42,2.304108434,0.050653884,2.209895595,2.421849784,0.16994977,0.068445928,0.035441064,0.362226723,0.131125864,0.289357986,5.58E-08,1.413352753,2.60985043,0.066110973,2.513605339,2.681965944,31.09702703,0.014369299,31.07,31.13,0.21719457,-0.000198666,0,0,1
0,0.02737737,0.000968881,0.024081873,0.033714623,0.027377357,0.00096888,0.024081862,0.033714607,1.88E-05,6.67E-07,1.66E-05,2.32E-05,1.88E-05,6.67E-07,1.66E-05,2.32E-05,0.072607466,4.799719159,-17.54,27.39,2.326394675,0.037211506,2.26632745,2.403588571,0.139005569,0.06358826,0.049603957,0.266294505,0.100145259,0.180489627,9.57E-08,0.769698988,2.679713785,0.014943459,2.655300829,2.696053097,31.07763636,0.021402093,31.03,31.11,0.253393665,-0.000491941,0,0,1
0,0.028105118,0.001680668,0.019265499,0.039219051,0.028105105,0.001680667,0.01926549,0.039219032,1.93E-05,1.16E-06,1.33E-05,2.70E-05,1.93E-05,1.16E-06,1.33E-05,2.70E-05,-0.039491238,8.700084843,-42.07,53.69,2.328073537,0.030569094,2.277909025,2.397548306,0.104975852,0.051222377,0.021236786,0.225756349,0.089158757,0.188976855,7.85E-08,1.118319438,2.71677462,0.029054188,2.681807973,2.75990984,31.04189189,0.016413218,31.01,31.07,0.153759186,-0.00029993,0,0,1
0,0.019707596,0.003369254,0.014449124,0.033026569,0.019707587,0.003369252,0.014449117,0.033026554,1.36E-05,2.32E-06,9.94E-06,2.27E-05,1.36E-05,2.32E-06,9.94E-06,2.27E-05,0.063535068,42.08304015,-250.52,226.88,2.37092978,0.052126689,2.304137629,2.534733675,0.138583723,0.118047972,0.017746238,0.430588318,0.109937362,0.263200191,4.67E-08,1.747661571,2.758192613,0.034328951,2.699869755,2.803983965,30.97563636,0.045856045,30.91,31.05,0.131221719,-0.001332011,0,0,1
0,0.027311449,0.00264942,0.016513285,0.039907104,0.027311436,0.002649419,0.016513277,0.039907086,1.88E-05,1.82E-06,1.14E-05,2.75E-05,1.88E-05,1.82E-06,1.14E-05,2.75E-05,0.164754098,15.04821635,-64.93,59.39,2.392619654,0.038213444,2.340488383,2.490150517,0.211413685,0.09911527,0.036139991,0.462887801,0.15708729,0.279884008,6.49E-08,1.189982632,2.723328643,0.083348832,2.629197179,2.864958807,30.94441441,0.019575895,30.91,30.97,0.198982476,0.000458406,0,0,1
0,0.02026411,0.00389118,0.015137178,0.028898248,0.020264101,0.003891178,0.01513717,0.028898234,1.39E-05,2.68E-06,1.04E-05,1.99E-05,1.39E-05,2.68E-06,1.04E-05,1.99E-05,-0.17540724,25.96870367,-176.3,138.47,2.462975072,0.053341802,2.382628025,2.598271472,0.159808465,0.109784883,0.009665587,0.43120811,0.129516289,0.233327587,5.66E-08,1.075901846,2.898063306,0.041612243,2.849747849,2.958967265,30.93581818,0.023095919,30.89,30.97,0.054298643,-0.000608074,0,0,1
0,0.024390096,0.006191557,0.015825231,0.065365085,0.024390085,0.006191554,0.015825224,0.065365054,1.68E-05,4.26E-06,1.09E-05,4.50E-05,1.68E-05,4.26E-06,1.09E-05,4.50E-05,0.068292821,41.11616169,-184.41,210.06,2.489664732,0.065132452,2.402411701,2.654885955,0.374516602,0.160932999,0.106170696,0.711638109,0.285528308,0.469210842,3.93E-08,2.322809239,2.730106093,0.116644731,2.577062171,2.937694362,30.85864865,0.018132967,30.83,30.89,0.13566987,-0.000268164,0,0,1
0,0.0265749,0.001031707,0.021329659,0.040595158,0.026574887,0.001031706,0.021329649,0.040595139,1.83E-05,7.10E-07,1.47E-05,2.79E-05,1.83E-05,7.10E-07,1.47E-05,2.79E-05,-0.098455882,6.96042697,-35.44,48.95,2.440674597,0.046137787,2.356374979,2.505156546,0.039370577,0.037320887,0.004255786,0.207569469,0.017598263,0.051997326,1.44E-07,0.358116558,2.979427438,0.069621477,2.85095922,3.068880683,30.88163636,0.014864679,30.85,30.91,0.099547511,4.85E-05,0,0,1
0,0.026427793,0.000656084,0.024081873,0.028210195,0.026427781,0.000656084,0.024081862,0.028210181,1.82E-05,4.51E-07,1.66E-05,1.94E-05,1.82E-05,4.51E-07,1.66E-05,1.94E-05,0.066227376,5.946641964,-23.3,21.21,2.285252767,0.054587581,2.180109391,2.362694955,0.022429452,0.021383726,0.002023208,0.093607319,0.01601631,0.059309716,1.15E-07,0.393235842,2.724314742,0.086887465,2.560241446,2.848926015,30.87918919,0.013631914,30.85,30.91,0.040723982,-0.000195507,0,0,1
0,0.026461683,0.000788326,0.02339382,0.029586302,0.026461671,0.000788326,0.023393809,0.029586288,1.82E-05,5.42E-07,1.61E-05,2.04E-05,1.82E-05,5.42E-07,1.61E-05,2.04E-05,-0.028733748,4.951987648,-17.84,15.98,2.103974692,0.047944433,2.029558161,2.177681762,0.018976433,0.010428958,0.001061796,0.049227338,0.017857188,0.043200152,1.22E-07,0.231667106,2.410502616,0.089272414,2.257834361,2.557581654,30.85436364,0.014618001,30.83,30.89,0.298473714,-0.000232266,0,0,1
0,0.026389655,0.000902877,0.02339382,0.029586302,0.026389642,0.000902876,0.023393809,0.029586288,1.82E-05,6.21E-07,1.61E-05,2.04E-05,1.82E-05,6.21E-07,1.61E-05,2.04E-05,-0.056334842,17.27773816,-110.82,135.41,1.953917187,0.043615784,1.882635633,2.035635665,0.025866133,0.017790328,0.001138013,0.059800701,0.018335511,0.050986923,7.24E-08,0.371014669,2.140981478,0.061661786,2.026195695,2.255194282,30.82099099,0.015124406,30.79,30.85,0.099547511,-0.000242717,0,0,1
0,0.026351516,0.000655021,0.024081873,0.028898248,0.026351504,0.000655021,0.024081862,0.028898234,1.81E-05,4.51E-07,1.66E-05,1.99E-05,1.81E-05,4.51E-07,1.66E-05,1.99E-05,-0.033702657,4.087869773,-17.09,22.78,1.836856265,0.030209027,1.788142444,1.885096277,0.031045358,0.021429033,0.002612426,0.082493493,0.02427904,0.072254508,1.12E-07,0.624242229,1.930731043,0.051467195,1.850022686,2.023821865,30.80127273,0.013355904,30.77,30.83,0.284906727,-0.000222347,0,0,1
0,0.026280687,0.000585053,0.024769927,0.028210195,0.026280674,0.000585053,0.024769915,0.028210181,1.81E-05,4.03E-07,1.70E-05,1.94E-05,1.81E-05,4.03E-07,1.70E-05,1.94E-05,0.056408371,3.551111761,-10.16,11.78,1.749123627,0.024121657,1.703252415,1.788812407,0.018014044,0.008611635,0.004027714,0.035831027,0.012080986,0.036958875,8.65E-08,0.270693404,1.790108774,0.040617867,1.719843466,1.849129614,30.76837838,0.015453536,30.73,30.79,0.271493213,-0.000249912,0,0,1
0,0.026170163,0.000629486,0.024081873,0.028898248,0.02617015,0.000629486,0.024081862,0.028898234,1.80E-05,4.33E-07,1.66E-05,1.99E-05,1.80E-05,4.33E-07,1.66E-05,1.99E-05,0.041272624,3.219374644,-9.51,9.38,1.68790846,0.023959704,1.651931574,1.741390451,0.029314413,0.019305315,0.00442071,0.083397999,0.023326331,0.070213699,1.22E-07,0.502825704,1.671919335,0.030648981,1.625620245,1.71908534,30.74345455,0.01082391,30.73,30.77,0.271493213,-0.000196921,0,0,1
0,0.02622689,0.000604795,0.024081873,0.028210195,0.026226878,0.000604795,0.024081862,0.028210181,1.80E-05,4.16E-07,1.66E-05,1.94E-05,1.80E-05,4.16E-07,1.66E-05,1.94E-05,-0.050819672,2.820251214,-9.28,7.27,1.644347453,0.025697622,1.601763443,1.689104488,0.031162812,0.019987467,0.001328477,0.080496098,0.023233113,0.057200669,8.37E-08,0.278784456,1.593797118,0.029965284,1.547394442,1.627546584,30.7263964,0.012065347,30.71,30.75,0.248728095,-9.86E-05,0,0,1
0,0.026181059,0.00099663,0.022705766,0.032338516,0.026181047,0.00099663,0.022705756,0.0323385,1.80E-05,6.86E-07,1.56E-05,2.23E-05,1.80E-05,6.86E-07,1.56E-05,2.23E-05,-0.017771493,4.851476161,-19.85,23.02,1.596781678,0.018393678,1.572510013,1.64855712,0.021824253,0.024193771,0.002343741,0.100228786,0.017393018,0.053850592,9.98E-08,0.323810786,1.519687241,0.015210899,1.498663056,1.546714202,30.70441441,0.013733938,30.67,30.73,0.257918552,-6.79E-05,0,0,1
0,0.026893241,0.000596081,0.02545798,0.029586302,0.026893229,0.000596081,0.025457968,0.029586288,1.85E-05,4.10E-07,1.75E-05,2.04E-05,1.85E-05,4.10E-07,1.75E-05,2.04E-05,0.010096099,6.211680962,-37.42,40.63,1.56908668,0.024730156,1.534291283,1.621793547,0.014879698,0.013022811,0.000861557,0.061098001,0.015198194,0.039713443,8.07E-08,0.17782661,1.478307986,0.039629964,1.414251807,1.540898491,30.69254545,0.014297893,30.67,30.71,0.085924251,-0.000179609,0,0,1
0,0.027055136,0.0044324,0.012384963,0.070869513,0.027055124,0.004432398,0.012384958,0.070869479,1.86E-05,3.05E-06,8.52E-06,4.88E-05,1.86E-05,3.05E-06,8.52E-06,4.88E-05,0.051329186,22.64535727,-147.51,134.12,1.608237251,0.021834329,1.556484646,1.645805512,0.074600163,0.052422361,0.009605302,0.206327088,0.053032386,0.154375518,5.07E-08,1.097144614,1.486878636,0.056043512,1.403316499,1.553743348,30.68063063,0.012540333,30.67,30.71,0.135746606,-8.46E-05,0,0,1
0,0.027960629,0.002048496,0.020641606,0.039219051,0.027960616,0.002048495,0.020641596,0.039219032,1.92E-05,1.41E-06,1.42E-05,2.70E-05,1.92E-05,1.41E-06,1.42E-05,2.70E-05,-0.062962125,12.6962718,-74.18,90.15,0.4304851,0.006862145,0.417780608,0.444173377,0.004948395,0.004420794,0.000210716,0.018490247,0.003915172,0.020224236,5.41E-08,0.198522768,-0.504773264,0.011351583,-0.518670728,-0.485921199,30.15072072,0.026701949,30.09,30.19,0.144714528,0.000692348,1,0,0
0,0.032480952,0.003925042,0.019953552,0.050227907,0.032480937,0.00392504,0.019953543,0.050227884,2.23E-05,2.70E-06,1.37E-05,3.46E-05,2.23E-05,2.70E-06,1.37E-05,3.46E-05,-0.101544118,25.62920235,-136.52,128.05,0.437785682,0.003929268,0.420922886,0.449441961,0.00277552,0.003609381,5.56E-06,0.012289124,0.001896518,0.007868399,6.13E-08,0.063442212,-0.490016662,0.002876402,-0.499087919,-0.484395607,30.17309091,0.01529976,30.13,30.19,0.063348416,-0.000197913,1,0,0
0,0.031685487,0.000451536,0.030274355,0.034402676,0.031685472,0.000451536,0.030274341,0.03440266,2.18E-05,3.11E-07,2.08E-05,2.37E-05,2.18E-05,3.11E-07,2.08E-05,2.37E-05,0.272330317,4.854696786,-13.31,16.24,0.445343847,0.002894612,0.440542815,0.451339848,0.002758231,0.00304118,6.55E-05,0.00999279,0.001741912,0.008274086,9.32E-08,0.075257852,-0.476803857,0.003237003,-0.484209354,-0.473236687,30.12171171,0.012438959,30.11,30.15,0.180995475,-0.000183749,1,0,0
0,0.031181901,0.001486133,0.021329659,0.037842944,0.031181886,0.001486132,0.021329649,0.037842926,2.15E-05,1.02E-06,1.47E-05,2.60E-05,2.15E-05,1.02E-06,1.47E-05,2.60E-05,0.02093273,11.00325784,-73.29,84.05,0.446537975,0.003573193,0.435415701,0.461043481,0.002362764,0.002555614,6.04E-05,0.008836493,0.001816565,0.008475498,7.58E-08,0.071131739,-0.474189688,0.005536601,-0.482145613,-0.467137797,30.09981818,0.015665934,30.07,30.13,0.072357264,-0.000154363,1,0,0
0,0.031946232,0.000830093,0.027522141,0.03715489,0.031946217,0.000830092,0.027522128,0.037154873,2.20E-05,5.71E-07,1.89E-05,2.56E-05,2.20E-05,5.71E-07,1.89E-05,2.56E-05,-0.211606335,3.85926351,-14.55,13.03,0.444110272,0.001424178,0.440989048,0.447331704,0.000294401,0.000426858,1.81E-06,0.001807036,0.000221889,0.001453211,1.18E-07,0.011351157,-0.476421915,0.001161895,-0.478584034,-0.473504893,30.07774775,0.011124576,30.05,30.09,0.176470588,-0.000122499,1,0,0
0,0.031865819,0.000616413,0.027522141,0.03509073,0.031865804,0.000616413,0.027522128,0.035090713,2.19E-05,4.24E-07,1.89E-05,2.41E-05,2.19E-05,4.24E-07,1.89E-05,2.41E-05,0.119434709,7.318836923,-19.98,60.58,0.444674056,0.003680702,0.440932323,0.462419683,0.002452714,0.00532456,6.52E-06,0.021898023,0.002541221,0.022201371,1.03E-07,0.233017875,-0.477843549,0.001614159,-0.481958285,-0.475574976,30.05236364,0.015191342,30.03,30.09,0.189937818,-0.000375719,1,0,0
0,0.032203863,0.001457589,0.026146034,0.040595158,0.032203847,0.001457588,0.026146022,0.040595139,2.22E-05,1.00E-06,1.80E-05,2.79E-05,2.22E-05,1.00E-06,1.80E-05,2.79E-05,-0.178269231,13.54804279,-109.53,84.4,0.447640821,0.006957687,0.438458757,0.468264364,0.019485332,0.011330233,0.005944486,0.046578017,0.014530313,0.043795818,4.67E-08,0.289742211,-0.489381167,0.003745285,-0.494359214,-0.479995098,30.01990991,0.01737221,29.99,30.05,0.108597285,-0.000399438,1,0,0
0,0.032600817,0.000349837,0.031650462,0.033714623,0.032600801,0.000349837,0.031650447,0.033714607,2.24E-05,2.41E-07,2.18E-05,2.32E-05,2.24E-05,2.41E-07,2.18E-05,2.32E-05,0.135808824,14.82107487,-139.41,97.66,0.460543923,0.006603074,0.441966338,0.470903761,0.005107715,0.004959739,3.19E-05,0.01624725,0.003679541,0.013857923,6.27E-08,0.088454679,-0.452422477,0.009933068,-0.479108688,-0.441537646,30.00345455,0.013241557,29.99,30.03,0.099547511,-0.000270496,1,0,0
0,0.033028904,0.00195229,0.026834087,0.041283211,0.033028889,0.001952289,0.026834075,0.041283192,2.27E-05,1.34E-06,1.85E-05,2.84E-05,2.27E-05,1.34E-06,1.85E-05,2.84E-05,-0.028021481,28.45191744,-222.02,152.98,0.45695586,0.005923094,0.439320661,0.466490368,0.011607097,0.0115309,2.50E-05,0.036296372,0.009279314,0.041383147,6.37E-08,0.319409472,-0.465378959,0.010705745,-0.482311421,-0.452764251,29.97414414,0.017831467,29.95,30.01,0.113058225,-0.000357845,1,0,0
0,0.031950123,0.000344279,0.030962409,0.032338516,0.031950108,0.000344279,0.030962394,0.0323385,2.20E-05,2.37E-07,2.13E-05,2.23E-05,2.20E-05,2.37E-07,2.13E-05,2.23E-05,0.080367647,3.78107188,-10.79,8.87,0.453560537,0.004840967,0.445133869,0.462193365,0.000568447,0.001303708,6.05E-07,0.006966253,1.92E-05,0.000191659,1.20E-07,0.002019418,-0.460037804,0.007783228,-0.472950306,-0.44904984,29.97436364,0.014367088,29.95,29.99,0.171945701,0.000138674,1,0,0
0,0.031830833,0.00033291,0.030962409,0.033026569,0.031830818,0.00033291,0.030962394,0.033026554,2.19E-05,2.29E-07,2.13E-05,2.27E-05,2.19E-05,2.29E-07,2.13E-05,2.27E-05,-0.009807801,3.596438721,-10.58,8.53,0.444981864,0.001345461,0.441475247,0.448551593,0.000613993,0.000994564,4.19E-07,0.003956765,0.000488165,0.003963481,1.12E-07,0.040956558,-0.475256754,0.000842735,-0.477488724,-0.473136923,29.9709009,0.012702383,29.95,29.99,0.185415489,-0.000178484,1,0,0
0,0.031587416,0.001394581,0.019265499,0.041971265,0.031587402,0.00139458,0.01926549,0.041971245,2.17E-05,9.60E-07,1.33E-05,2.89E-05,2.17E-05,9.60E-07,1.33E-05,2.89E-05,0.680763575,5.984104031,-27.6,60.07,0.441701148,0.001335645,0.437339948,0.444282952,0.001154524,0.00219044,1.35E-06,0.008841782,0.001263187,0.005784074,7.12E-08,0.048502573,-0.481687275,0.002882849,-0.492803391,-0.47757878,29.96127273,0.01362545,29.93,29.99,0.167420814,-4.62E-05,1,0,0
0,0.031920546,0.002294045,0.017889392,0.045411533,0.031920531,0.002294044,0.017889383,0.045411511,2.20E-05,1.58E-06,1.23E-05,3.12E-05,2.20E-05,1.58E-06,1.23E-05,3.12E-05,-0.66522329,81.70451301,-471.51,519.63,0.448027461,0.010831114,0.41493316,0.459530271,0.012154277,0.012786635,6.95E-05,0.039878283,0.008965455,0.034017045,4.44E-08,0.291947269,-0.481255311,0.023812481,-0.512244015,-0.451336749,29.92801802,0.014445912,29.91,29.95,0.072357264,-0.000284661,1,0,0