,net_acc_mean,net_acc_std,net_acc_min,net_acc_max,ACC_x_mean,ACC_x_std,ACC_x_min,ACC_x_max,ACC_y_mean,ACC_y_std,ACC_y_min,ACC_y_max,ACC_z_mean,ACC_z_std,ACC_z_min,ACC_z_max,BVP_mean,BVP_std,BVP_min,BVP_max,EDA_mean,EDA_std,EDA_min,EDA_max,EDA_phasic_mean,EDA_phasic_std,EDA_phasic_min,EDA_phasic_max,EDA_smna_mean,EDA_smna_std,EDA_smna_min,EDA_smna_max,EDA_tonic_mean,EDA_tonic_std,EDA_tonic_min,EDA_tonic_max,TEMP_mean,TEMP_std,TEMP_min,TEMP_max,BVP_peak_freq,TEMP_slope,0,1,2
0,0.029658687,0.010016318,0.012384963,0.055732335,-0.029658673,0.010016314,-0.055732309,-0.012384958,-2.04E-05,6.89E-06,-3.83E-05,-8.52E-06,-2.04E-05,6.89E-06,-3.83E-05,-8.52E-06,0.028665913,71.719597,-350.9,254.55,2.08832404,0.106131284,1.955288221,2.444625259,3.831986245,1.381532795,1.011808317,6.535098666,3.047796886,4.012307061,2.09E-08,19.13193263,0.233415918,1.244044062,-1.183400065,3.07498301,33.4063964,0.014255885,33.37,33.43,0.13566987,-7.06E-05,0,1,0
0,0.014647601,0.002853054,0.008944696,0.042659319,-0.014647594,0.002853052,-0.042659298,-0.008944692,-1.01E-05,1.96E-06,-2.94E-05,-6.15E-06,-1.01E-05,1.96E-06,-2.94E-05,-6.15E-06,-0.246894796,32.839834,-130.88,122.37,1.910087827,0.01753774,1.879893224,1.959727517,0.606800123,0.647034007,0.034653257,2.503653696,0.353342273,0.465497489,1.10E-07,2.079084848,2.739248808,0.597780313,1.029338179,3.291219956,33.42636364,0.023692242,33.39,33.47,0.140271493,0.000631337,0,1,0
0,0.025492966,0.006859851,0.004128321,0.037842944,-0.025492954,0.006859848,-0.037842926,-0.004128319,-1.75E-05,4.72E-06,-2.60E-05,-2.84E-06,-1.75E-05,4.72E-06,-2.60E-05,-2.84E-06,0.016399096,82.48065552,-328.66,469.91,1.872093414,0.035224939,1.834467888,2.028791506,1.177175503,0.704692217,0.053328664,2.286972375,0.848016446,1.47038197,1.83E-08,10.15189335,2.015957201,0.632647243,1.161657056,2.999465957,33.46009009,0.011349921,33.43,33.47,0.094968909,-8.35E-05,0,1,0
0,0.024683531,0.006944184,0,0.044035426,-0.024681963,0.006949712,-0.044035405,0.000688053,-1.70E-05,4.78E-06,-3.03E-05,4.73E-07,-1.70E-05,4.78E-06,-3.03E-05,4.73E-07,-0.569909502,70.19159195,-238.21,254.48,1.812404398,0.020279675,1.779490577,1.900377647,0.396174924,0.246133845,0.044391491,0.826807287,0.306915227,0.565611292,3.37E-08,2.873503678,2.555996249,0.220726367,2.240685779,2.965823771,33.46864865,0.011108514,33.45,33.5,0.126696833,0.000186206,0,1,0
0,0.023165766,0.003257638,0.000688054,0.030962409,-0.023165755,0.003257637,-0.030962394,-0.000688053,-1.59E-05,2.24E-06,-2.13E-05,-4.73E-07,-1.59E-05,2.24E-06,-2.13E-05,-4.73E-07,0.486065574,47.14253261,-211.97,235.01,1.768572799,0.019173208,1.742523546,1.847367922,0.218748758,0.165661131,0.0165318,0.452183481,0.160643246,0.327058058,3.86E-08,2.606786916,2.556876256,0.121030328,2.353264952,2.718320691,33.47627273,0.013938768,33.45,33.5,0.144714528,-0.000288574,0,1,0
0,0.02412079,0.000256834,0.022705766,0.026146034,-0.024120779,0.000256834,-0.026146022,-0.022705756,-1.66E-05,1.77E-07,-1.80E-05,-1.56E-05,-1.66E-05,1.77E-07,-1.80E-05,-1.56E-05,-0.043252262,22.14311134,-50.81,57.12,1.72385244,0.012117782,1.703381666,1.74503486,0.022567579,0.013601563,0.003232759,0.054238546,0.01567259,0.043848961,1.16E-07,0.250701918,2.572500633,0.043054565,2.488471531,2.631875118,33.43486486,0.01659615,33.41,33.47,0.131221719,-0.000325377,0,1,0
0,0.024769149,6.94E-05,0.024081873,0.02545798,-0.024769137,6.94E-05,-0.025457968,-0.024081862,-1.70E-05,4.78E-08,-1.75E-05,-1.66E-05,-1.70E-05,4.78E-08,-1.75E-05,-1.66E-05,0.339988688,22.08879108,-50.84,34.17,1.683337464,0.011777038,1.657744622,1.704568783,0.024806277,0.007607445,0.011449488,0.043751017,0.018316743,0.040998031,9.72E-08,0.213065082,2.40685764,0.047860569,2.335056665,2.486960795,33.41545455,0.008907235,33.41,33.43,0.131221719,-4.33E-05,0,1,0
0,0.020438688,0.00143808,0.019265499,0.028898248,-0.020438679,0.001438079,-0.028898234,-0.01926549,-1.41E-05,9.89E-07,-1.99E-05,-1.33E-05,-1.41E-05,9.89E-07,-1.99E-05,-1.33E-05,-0.255285472,24.27659718,-153.41,115.99,1.650293268,0.011926236,1.629716817,1.670007918,0.020937822,0.009204851,0.008908203,0.050293067,0.016190771,0.044457982,9.18E-08,0.285275278,2.277622217,0.041263364,2.203121778,2.334465043,33.41468468,0.012579106,33.39,33.45,0.126625212,-0.000115304,0,1,0
0,0.02061125,0.000159123,0.019265499,0.021329659,-0.020611241,0.000159123,-0.021329649,-0.01926549,-1.42E-05,1.09E-07,-1.47E-05,-1.33E-05,-1.42E-05,1.09E-07,-1.47E-05,-1.33E-05,0.025978507,17.71980934,-41.73,46.79,1.610663267,0.010787973,1.593204943,1.62973983,0.011191406,0.004673781,0.003477724,0.021190564,0.008996935,0.024779559,1.36E-07,0.123172241,2.127482303,0.044884543,2.052912516,2.201957674,33.40709091,0.010387532,33.39,33.43,0.131221719,-7.21E-05,0,1,0
0,0.018157141,0.002079687,0.014449124,0.024081873,-0.018157132,0.002079686,-0.024081862,-0.014449117,-1.25E-05,1.43E-06,-1.66E-05,-9.94E-06,-1.25E-05,1.43E-06,-1.66E-05,-9.94E-06,-0.045585076,26.68458558,-104.78,67.86,1.575741601,0.009451043,1.557636841,1.596227658,0.020928117,0.008650194,0.00749741,0.035714478,0.015136463,0.043446235,8.45E-08,0.255381412,1.977057159,0.036308427,1.923438005,2.05137632,33.42945946,0.015057717,33.41,33.45,0.126625212,0.000396981,0,1,0
0,0.016719545,0.000516201,0.015137178,0.017889392,-0.016719537,0.000516201,-0.017889383,-0.01513717,-1.15E-05,3.55E-07,-1.23E-05,-1.04E-05,-1.15E-05,3.55E-07,-1.23E-05,-1.04E-05,-0.121866516,20.27843811,-53.99,48.07,1.543079082,0.008689762,1.529991493,1.559325046,0.017727969,0.005662133,0.007955026,0.032969216,0.014592465,0.03684173,8.60E-08,0.229623033,1.84836335,0.036286644,1.791247158,1.922218973,33.458,0.014572702,33.43,33.49,0.131221719,0.000232987,0,1,0
0,0.016503955,7.96E-05,0.015825231,0.016513285,-0.016503947,7.96E-05,-0.016513277,-0.015825224,-1.14E-05,5.48E-08,-1.14E-05,-1.09E-05,-1.14E-05,5.48E-08,-1.14E-05,-1.09E-05,0.099638214,21.55431381,-51.87,40.93,1.514582515,0.008086133,1.496014767,1.530372627,0.0109347,0.007299723,0.001062196,0.025159568,0.007085652,0.021730051,7.44E-08,0.105762305,1.740440594,0.025189715,1.692276811,1.789914683,33.4690991,0.01352672,33.45,33.49,0.13566987,0.000131625,0,1,0
0,0.016483708,0.000139555,0.015825231,0.016513285,-0.0164837,0.000139555,-0.016513277,-0.015825224,-1.13E-05,9.60E-08,-1.14E-05,-1.09E-05,-1.13E-05,9.60E-08,-1.14E-05,-1.09E-05,0.189202489,20.41474429,-45.62,33.09,1.488059519,0.008056897,1.474343759,1.501245956,0.011774133,0.006084161,0.001416571,0.027723913,0.010235236,0.024134155,6.64E-08,0.09571446,1.632360701,0.033123471,1.571094124,1.690995357,33.47454545,0.012550724,33.45,33.49,0.153846154,0.000105583,0,1,0
0,0.016468919,0.00017213,0.015137178,0.016513285,-0.016468911,0.000172129,-0.016513277,-0.01513717,-1.13E-05,1.18E-07,-1.14E-05,-1.04E-05,-1.13E-05,1.18E-07,-1.14E-05,-1.04E-05,-0.007341629,22.18546165,-47.9,35.55,1.477408402,0.006595184,1.466280313,1.491877135,0.027806978,0.018273304,0.003545049,0.083427471,0.020839766,0.07167686,1.49E-07,0.553533799,1.573629213,0.015795851,1.551340562,1.595764096,33.46495495,0.013811725,33.45,33.49,0.126696833,-0.000102843,0,1,0
0,0.016396533,0.000871602,0.008944696,0.024081873,-0.016396526,0.000871601,-0.024081862,-0.008944692,-1.13E-05,6.00E-07,-1.66E-05,-6.15E-06,-1.13E-05,6.00E-07,-1.66E-05,-6.15E-06,-0.064177501,44.3520066,-312.74,314.89,1.462015502,0.007281329,1.443332082,1.47560736,0.018671895,0.010929533,0.003437728,0.042211578,0.015792645,0.045352046,1.04E-07,0.236595041,1.520712342,0.036404759,1.465981919,1.574037852,33.46818182,0.014408446,33.45,33.49,0.144714528,-0.000101706,0,1,0
0,0.016501609,0.00018331,0.015137178,0.017889392,-0.016501602,0.00018331,-0.017889383,-0.01513717,-1.14E-05,1.26E-07,-1.23E-05,-1.04E-05,-1.14E-05,1.26E-07,-1.23E-05,-1.04E-05,0.07466629,18.24636689,-46.55,37.19,1.437889995,0.007665805,1.424785467,1.453414243,0.019572405,0.00429783,0.010752918,0.030339252,0.014897832,0.041911352,9.13E-08,0.196724178,1.422316334,0.029126071,1.374025114,1.465609515,33.46153153,0.012462426,33.43,33.49,0.131221719,-5.90E-05,0,1,0
0,0.016503955,7.96E-05,0.015825231,0.016513285,-0.016503947,7.96E-05,-0.016513277,-0.015825224,-1.14E-05,5.48E-08,-1.14E-05,-1.09E-05,-1.14E-05,5.48E-08,-1.14E-05,-1.09E-05,0.058479367,19.69900109,-47.01,29.94,1.416638228,0.006386236,1.403110685,1.427763679,0.018898074,0.012576862,0.000954561,0.046660406,0.013631903,0.041761239,1.07E-07,0.246821581,1.337347937,0.032506366,1.280795296,1.373394955,33.44872727,0.015082144,33.41,33.49,0.131147541,-0.000241012,0,1,0
0,0.026942277,0.010467161,0.008256642,0.06054871,-0.026942264,0.010467156,-0.060548681,-0.008256638,-1.85E-05,7.20E-06,-4.17E-05,-5.68E-06,-1.85E-05,7.20E-06,-4.17E-05,-5.68E-06,0.20510181,49.38478534,-181.92,239.13,1.382876675,0.021451809,1.348034997,1.405910325,0.056399773,0.04620277,0.003129783,0.155684027,0.042933459,0.118313589,6.19E-08,0.753001628,1.163790992,0.104532347,1.041972776,1.299797207,33.43900901,0.015593655,33.41,33.47,0.099547511,0.000189014,0,1,0
0,0.028361193,0.009066882,0.001376107,0.059860657,-0.028358066,0.00907661,-0.059860628,0.001376106,-1.95E-05,6.25E-06,-4.12E-05,9.47E-07,-1.95E-05,6.25E-06,-4.12E-05,9.47E-07,-0.529377828,65.29305003,-198.13,207.28,1.37443886,0.015467723,1.343512848,1.405055019,0.248333099,0.106166036,0.006249752,0.378297259,0.204417762,0.44325791,7.96E-08,1.861766741,0.93780431,0.065271942,0.870601141,1.069332989,33.44854545,0.01197242,33.43,33.47,0.076923077,8.51E-05,0,1,0
0,0.034750595,0.002595898,0.027522141,0.045411533,-0.034750578,0.002595897,-0.045411511,-0.027522128,-2.39E-05,1.79E-06,-3.12E-05,-1.89E-05,-2.39E-05,1.79E-06,-3.12E-05,-1.89E-05,-0.535008479,51.41755335,-170.93,242.75,1.336022542,0.014397735,1.310116565,1.369169899,0.061222453,0.054526255,0.003432057,0.220201774,0.034819846,0.119537612,7.83E-08,0.827284152,0.97003256,0.016470323,0.933724104,0.988994366,33.47558559,0.013993865,33.45,33.49,0.126625212,0.000155844,0,1,0
0,0.035086838,0.001611465,0.02339382,0.042659319,-0.035086821,0.001611464,-0.042659298,-0.023393809,-2.41E-05,1.11E-06,-2.94E-05,-1.61E-05,-2.41E-05,1.11E-06,-2.94E-05,-1.61E-05,0.926306561,48.82949139,-237.4,262.15,1.304243086,0.009132866,1.289904407,1.339114815,0.0566409,0.036035357,0.004606754,0.149050022,0.042160229,0.128338718,3.75E-08,1.156664726,0.846300808,0.039570496,0.799052924,0.932196952,33.48909091,0.009491188,33.45,33.5,0.140271493,-0.000112256,0,1,0
0,0.034541064,0.001557403,0.028898248,0.040595158,-0.034541048,0.001557402,-0.040595139,-0.028898234,-2.38E-05,1.07E-06,-2.79E-05,-1.99E-05,-2.38E-05,1.07E-06,-2.79E-05,-1.99E-05,-0.503448276,27.37519482,-68.99,82.11,1.280029694,0.00681657,1.266865573,1.291538483,0.005476669,0.004890545,0.000291864,0.018137878,0.00400895,0.018154274,1.30E-07,0.125535872,0.80002809,0.024937939,0.757039696,0.847206273,33.49162162,0.00972973,33.47,33.5,0.140192199,6.95E-05,0,1,0
0,0.036947073,0.002294695,0.028898248,0.070869513,-0.036947056,0.002294694,-0.070869479,-0.028898234,-2.54E-05,1.58E-06,-4.88E-05,-1.99E-05,-2.54E-05,1.58E-06,-4.88E-05,-1.99E-05,0.312856335,38.92839441,-300.47,99.93,1.258323581,0.006482889,1.245222675,1.271202589,0.006466199,0.00663917,0.000121098,0.022676231,0.005888719,0.022859036,1.03E-07,0.140826794,0.711435126,0.022714654,0.67030708,0.756026093,33.49936937,0.009612237,33.49,33.53,0.135746606,-5.16E-05,0,1,0
0,0.038104466,0.000383266,0.037842944,0.039907104,-0.038104448,0.000383266,-0.039907086,-0.037842926,-2.62E-05,2.64E-07,-2.75E-05,-2.60E-05,-2.62E-05,2.64E-07,-2.75E-05,-2.60E-05,-0.223668739,22.43604543,-85.1,92.93,1.24077484,0.004949093,1.232090508,1.24990286,0.010961764,0.007375941,0.000788632,0.034305447,0.008289156,0.03046294,9.81E-08,0.252480378,0.635984645,0.021360357,0.605794675,0.66948461,33.48927273,0.010064256,33.47,33.5,0.13566987,4.33E-06,0,1,0
0,0.034980984,0.00771431,0.002064161,0.046099586,-0.034980967,0.007714307,-0.046099564,-0.00206416,-2.41E-05,5.31E-06,-3.17E-05,-1.42E-06,-2.41E-05,5.31E-06,-3.17E-05,-1.42E-06,0.25513009,47.1988997,-193.18,241.9,1.228886911,0.004863103,1.222052402,1.253565943,0.044500824,0.030301824,0.006735022,0.117550701,0.033775804,0.105445092,4.57E-08,0.84011931,0.554627948,0.029584154,0.513626159,0.605577735,33.48495495,0.011845391,33.47,33.5,0.122171946,-3.83E-05,0,1,0
0,0.037207818,0.000186243,0.036466837,0.037842944,-0.0372078,0.000186243,-0.037842926,-0.03646682,-2.56E-05,1.28E-07,-2.60E-05,-2.51E-05,-2.56E-05,1.28E-07,-2.60E-05,-2.51E-05,0.064111991,17.02403275,-41.84,25.73,1.22080322,0.002968863,1.211852988,1.226321915,0.009362385,0.007344948,0.000721792,0.038037411,0.009470521,0.031179395,1.06E-07,0.251857424,0.557387256,0.015763255,0.513314185,0.577837899,33.46963636,0.013479093,33.45,33.49,0.126696833,-0.000175281,0,1,0
0,0.011120811,0.015748814,0,0.055044282,-0.010886012,0.015912007,-0.055044256,0.018577436,-7.49E-06,1.09E-05,-3.79E-05,1.28E-05,-7.49E-06,1.09E-05,-3.79E-05,1.28E-05,-0.348818542,64.93642407,-273,477.34,1.231649013,0.013810097,1.202414549,1.246332593,0.071328674,0.053341555,0.002945325,0.172044167,0.052760375,0.168794917,1.03E-07,0.939188987,0.538971772,0.087868791,0.42779505,0.657580429,33.43594595,0.024101078,33.39,33.47,0.126625212,-0.000649351,0,1,0
0,0.001941183,0.000617395,0,0.004128321,-0.001941182,0.000617394,-0.004128319,0,-1.34E-06,4.25E-07,-2.84E-06,0,-1.34E-06,4.25E-07,-2.84E-06,0,0.320475113,22.393702,-55.35,41.01,1.238125745,0.002953341,1.229419345,1.244549022,0.004078119,0.002582844,0.000350166,0.009369248,0.003086256,0.014774003,1.72E-07,0.100271979,0.632338878,0.010679494,0.610346988,0.650338734,33.40490909,0.013865946,33.39,33.43,0.122171946,-0.000298627,0,1,0
0,0.007668995,0.012348505,0,0.066741192,-0.007532003,0.012432529,-0.06674116,0.011008851,-5.18E-06,8.55E-06,-4.59E-05,7.57E-06,-5.18E-06,8.55E-06,-4.59E-05,7.57E-06,-0.309869983,34.47751262,-324.86,129.47,1.228036354,0.01012887,1.196970577,1.236049134,0.028289227,0.031792669,0.000696049,0.108046728,0.021996049,0.083029436,7.76E-08,0.550152062,0.567455335,0.055501085,0.456641683,0.616243398,33.38945946,0.011534347,33.37,33.43,0.122102883,1.04E-05,0,1,0
0,0.033123083,0.005953531,0.000688054,0.051604014,-0.033020327,0.006499241,-0.05160399,0.01513717,-2.27E-05,4.47E-06,-3.55E-05,1.04E-05,-2.27E-05,4.47E-06,-3.55E-05,1.04E-05,0.124072398,31.16861814,-296.55,181.81,1.19192786,0.004089687,1.183000698,1.200406706,0.024900512,0.029430885,0.001159057,0.15168274,0.035434267,0.104793612,9.73E-08,0.659883419,0.425268719,0.036923105,0.271004082,0.455689622,33.36018182,0.01902065,33.34,33.39,0.135746606,-0.000336857,0,1,0
0,0.032475349,0.007923754,0.016513285,0.04678764,-0.032475334,0.00792375,-0.046787618,-0.016513277,-2.23E-05,5.45E-06,-3.22E-05,-1.14E-05,-2.23E-05,5.45E-06,-3.22E-05,-1.14E-05,-0.242939514,30.04415583,-157.3,165.65,1.185228015,0.035982444,1.157640018,1.338032843,0.316248568,0.256488388,0.004439533,0.83047607,0.227028175,0.590066741,3.15E-08,4.497382691,0.106866929,0.174581234,-0.152006735,0.332592819,33.31198198,0.025105895,33.27,33.37,0.122102883,-0.000724289,0,1,0
0,0.037772115,0.000209087,0.03715489,0.037842944,-0.037772097,0.000209087,-0.037842926,-0.037154873,-2.60E-05,1.44E-07,-2.60E-05,-2.56E-05,-2.60E-05,1.44E-07,-2.60E-05,-2.56E-05,0.419558824,17.73057733,-42.3,31.05,1.157834539,0.003712425,1.150573058,1.165063143,0.013185881,0.006157982,0.001219705,0.02618569,0.009629819,0.030147908,9.88E-08,0.158393348,0.299478206,0.014147551,0.281804149,0.327952633,33.25763636,0.013746224,33.23,33.29,0.113122172,-0.000241823,0,1,0
0,0.036008394,0.002851656,0.021329659,0.052292068,-0.036008377,0.002851655,-0.052292043,-0.021329649,-2.48E-05,1.96E-06,-3.60E-05,-1.47E-05,-2.48E-05,1.96E-06,-3.60E-05,-1.47E-05,-0.111414027,20.7910836,-86.45,112.7,1.142343402,0.0081152,1.110369749,1.153281865,0.087972935,0.059767396,0.000949926,0.190472347,0.068044147,0.182177306,6.05E-08,1.573663014,0.162339809,0.074699376,0.053438071,0.287938769,33.25288288,0.011654747,33.23,33.27,0.131221719,-2.11E-05,0,1,0
0,0.036473842,8.31E-05,0.035778783,0.03715489,-0.036473825,8.31E-05,-0.037154873,-0.035778766,-2.51E-05,5.72E-08,-2.56E-05,-2.46E-05,-2.51E-05,5.72E-08,-2.56E-05,-2.46E-05,-0.012357264,16.32194394,-39.14,31.03,1.138454707,0.002602159,1.127594359,1.143261731,0.011634421,0.004515885,0.003985707,0.022594528,0.00911356,0.028592515,6.92E-08,0.194515448,0.222764249,0.006330769,0.213905096,0.236765319,33.25290909,0.015917141,33.23,33.29,0.131147541,-0.000112526,0,1,0
0,0.036477734,9.19E-05,0.035778783,0.03715489,-0.036477716,9.19E-05,-0.037154873,-0.035778766,-2.51E-05,6.32E-08,-2.56E-05,-2.46E-05,-2.51E-05,6.32E-08,-2.56E-05,-2.46E-05,0.138303167,16.92334653,-39.46,28.79,1.133095526,0.002315456,1.127282056,1.13812162,0.0069142,0.002892822,0.002412513,0.014749654,0.005427296,0.017906077,8.13E-08,0.093490449,0.205961663,0.004349038,0.197492557,0.213738297,33.25936937,0.011332746,33.23,33.27,0.131221719,3.26E-05,0,1,0
0,0.036476166,7.96E-05,0.036466837,0.03715489,-0.036476149,7.96E-05,-0.037154873,-0.03646682,-2.51E-05,5.48E-08,-2.56E-05,-2.51E-05,-2.51E-05,5.48E-08,-2.56E-05,-2.51E-05,-0.14267948,16.85151254,-40.85,28.89,1.126618027,0.002429365,1.120448483,1.13199433,0.005041538,0.003517666,0.000458366,0.012615854,0.003666569,0.013567444,1.08E-07,0.087133,0.181736644,0.006941118,0.165320326,0.197160806,33.248,0.013470507,33.21,33.27,0.131147541,-0.00014724,0,1,0
0,0.03646528,0.000182212,0.03509073,0.037842944,-0.036465263,0.000182212,-0.037842926,-0.035090713,-2.51E-05,1.25E-07,-2.60E-05,-2.41E-05,-2.51E-05,1.25E-07,-2.60E-05,-2.41E-05,-0.079558824,20.69799505,-94.73,67.88,1.112670953,0.007516704,1.101461916,1.131305483,0.010020497,0.01003448,0.000164585,0.04025264,0.007384081,0.029227524,7.89E-08,0.185733434,0.120534836,0.020725739,0.090452071,0.164479268,33.24369369,0.014201125,33.21,33.27,0.149321267,-0.000206037,0,1,0
0,0.036187412,0.001562917,0.022017713,0.041971265,-0.036187395,0.001562917,-0.041971245,-0.022017702,-2.49E-05,1.08E-06,-2.89E-05,-1.51E-05,-2.49E-05,1.08E-06,-2.89E-05,-1.51E-05,1.10584276,18.74015603,-57.3,84.82,1.098119066,0.00325641,1.09133562,1.104873375,0.006930631,0.007285291,0.000150596,0.031695827,0.006523936,0.023233607,1.04E-07,0.171859435,0.064886205,0.01553163,0.03201399,0.08972388,33.206,0.0192212,33.18,33.25,0.135746606,-0.000266168,0,1,0
0,0.029678146,0.002559675,0.015825231,0.039907104,-0.029678132,0.002559673,-0.039907086,-0.015825224,-2.04E-05,1.76E-06,-2.75E-05,-1.09E-05,-2.04E-05,1.76E-06,-2.75E-05,-1.09E-05,-1.022470322,29.00159032,-135.1,134.85,1.082629901,0.004673119,1.07133194,1.096560227,0.012979443,0.013591267,0.000809597,0.072953744,0.014901704,0.057341268,7.12E-08,0.515980322,-0.00359882,0.025739637,-0.081031306,0.031445657,33.20153153,0.019736927,33.16,33.23,0.117580554,0.000255002,0,1,0
0,0.021476766,0.008167187,0.000688054,0.088070851,-0.021472086,0.008179453,-0.088070809,0.00206416,-1.48E-05,5.63E-06,-6.06E-05,1.42E-06,-1.48E-05,5.63E-06,-6.06E-05,1.42E-06,0.287941176,67.09024811,-395.52,500.89,1.076040617,0.021883361,1.057772682,1.153719872,0.18428532,0.135690155,0.004718939,0.448575926,0.135975564,0.332828214,4.47E-08,1.646535957,-0.201376686,0.082739326,-0.322182346,-0.086346014,33.174,0.038357173,33.11,33.25,0.167420814,-0.001076032,0,1,0
0,0.035610852,0.010957357,0.017201338,0.072933674,-0.035610835,0.010957352,-0.072933639,-0.01720133,-2.45E-05,7.54E-06,-5.02E-05,-1.18E-05,-2.45E-05,7.54E-06,-5.02E-05,-1.18E-05,-0.036896552,61.14172252,-487.98,279.1,1.060686913,0.005953861,1.041066192,1.070288762,0.073862207,0.051432473,0.006126757,0.172633672,0.057183773,0.139415989,6.31E-08,0.752072139,-0.152943677,0.046265461,-0.220243488,-0.08257451,33.07324324,0.019826371,33.05,33.11,0.117580554,-0.000435591,0,1,0
0,0.043397186,0.001720502,0.034402676,0.055732335,-0.043397165,0.001720501,-0.055732309,-0.03440266,-2.99E-05,1.18E-06,-3.83E-05,-2.37E-05,-2.99E-05,1.18E-06,-3.83E-05,-2.37E-05,-0.172799774,18.79901027,-63.08,70.16,1.059158398,0.003194016,1.050561371,1.065556011,0.012569543,0.008427936,0.001134341,0.033595768,0.009563164,0.028574003,1.06E-07,0.160274044,-0.097879613,0.013049504,-0.117920022,-0.07923245,33.06279279,0.011001324,33.05,33.09,0.153846154,4.14E-05,0,1,0
0,0.040484634,0.004724725,0.002064161,0.064677031,-0.040479944,0.004764569,-0.064677001,0.00206416,-2.79E-05,3.28E-06,-4.45E-05,1.42E-06,-2.79E-05,3.28E-06,-4.45E-05,1.42E-06,-1.02254381,57.75699728,-285.03,329.42,1.029371279,0.011781351,1.00967354,1.085344371,0.18193833,0.110877769,0.02220904,0.441177575,0.137244392,0.364742143,6.71E-08,2.496862814,-0.388096081,0.083905441,-0.616028083,-0.286745754,32.6163964,0.027600522,32.57,32.66,0.13566987,0.000765707,0,0,1
0,0.040226224,0.004914548,0.009632749,0.063300924,-0.040226205,0.004914546,-0.063300894,-0.009632745,-2.77E-05,3.38E-06,-4.36E-05,-6.63E-06,-2.77E-05,3.38E-06,-4.36E-05,-6.63E-06,-0.523495475,55.24851676,-298.87,205.24,1.048532776,0.01154411,1.019763404,1.083431868,0.225272522,0.059529255,0.100917047,0.388169051,0.151056402,0.351180633,4.86E-08,2.215336999,-0.352776272,0.055916378,-0.435108222,-0.274959706,32.64081818,0.013891254,32.61,32.66,0.117647059,-0.000236909,0,0,1
0,0.040480094,0.006211124,0.01376107,0.088070851,-0.040480074,0.006211121,-0.088070809,-0.013761064,-2.79E-05,4.27E-06,-6.06E-05,-9.47E-06,-2.79E-05,4.27E-06,-6.06E-05,-9.47E-06,1.072560769,58.61428948,-243.92,251.97,1.038518676,0.011435402,1.008911432,1.069893482,0.17059883,0.047869768,0.071336185,0.286040103,0.151526746,0.376286741,6.30E-08,2.100311452,-0.338852791,0.029731007,-0.383908857,-0.275328164,32.61846847,0.023023615,32.57,32.65,0.117580554,-0.000555985,0,0,1
0,0.04014839,0.006522906,0.002064161,0.088070851,-0.040016053,0.007290778,-0.088070809,0.01926549,-2.75E-05,5.02E-06,-6.06E-05,1.33E-05,-2.75E-05,5.02E-06,-6.06E-05,1.33E-05,-0.858393665,69.62153831,-364.13,199.04,1.04697582,0.010765904,1.020259213,1.073521053,0.279524847,0.212915104,0.066160541,1.057407415,0.277483796,0.549121401,5.87E-08,2.922430459,-0.414364371,0.184263915,-1.126412498,-0.251522345,32.5545045,0.028371371,32.5,32.61,0.104072398,-0.000705511,0,0,1
0,0.039546732,0.007151155,0,0.086006691,-0.039238491,0.008684605,-0.08600665,0.031650447,-2.70E-05,5.98E-06,-5.92E-05,2.18E-05,-2.70E-05,5.98E-06,-5.92E-05,2.18E-05,-0.156557377,98.46641457,-403.01,324.5,1.07373423,0.029416533,1.018775108,1.247493936,1.041080837,0.715114421,0.113819358,2.409542748,0.731978417,1.595260751,1.77E-08,13.94270539,-1.067554555,0.720545313,-2.075386853,-0.178561933,32.51218182,0.018751088,32.49,32.55,0.13566987,-8.31E-05,0,0,1
0,0.039410523,0.005092737,0.014449124,0.070869513,-0.039410504,0.005092735,-0.070869479,-0.014449117,-2.71E-05,3.50E-06,-4.88E-05,-9.94E-06,-2.71E-05,3.50E-06,-4.88E-05,-9.94E-06,0.3475,72.67617453,-201.29,227.06,1.059289414,0.015666021,1.034398847,1.126921141,0.430404615,0.169935258,0.1520002,0.828039388,0.324514743,0.613580373,3.12E-08,3.450931019,-0.515271553,0.169983091,-0.749149738,-0.226210631,32.46873874,0.027084024,32.41,32.5,0.14479638,-0.000733064,0,0,1
0,0.039100743,0.005713521,0.001376107,0.088070851,-0.039085158,0.005819055,-0.088070809,0.006880532,-2.69E-05,4.00E-06,-6.06E-05,4.73E-06,-2.69E-05,4.00E-06,-6.06E-05,4.73E-06,-0.107590498,46.33946696,-308.26,212.36,1.028191926,0.010141169,1.014305564,1.077653492,0.12705215,0.085155906,0.00637517,0.352661864,0.094171633,0.209514027,2.69E-08,1.44899094,-0.337131501,0.077037113,-0.442883433,-0.226882238,32.37090909,0.02337619,32.33,32.41,0.185520362,-0.000580303,0,0,1
0,0.03458538,0.007334545,0.010320803,0.063300924,-0.034585363,0.007334541,-0.063300894,-0.010320798,-2.38E-05,5.05E-06,-4.36E-05,-7.10E-06,-2.38E-05,5.05E-06,-4.36E-05,-7.10E-06,0.7933974,72.42524392,-236.57,295.48,1.040681959,0.025075115,0.998733153,1.142013176,0.370569182,0.373628442,0.029015874,1.319493319,0.385676304,0.858761846,3.92E-08,5.3649726,-0.530503329,0.369674916,-1.555947403,-0.233738037,32.31,0.028506361,32.25,32.37,0.072357264,-0.000813005,0,0,1
0,0.038544229,0.007150487,0.008256642,0.088070851,-0.038544211,0.007150484,-0.088070809,-0.008256638,-2.65E-05,4.92E-06,-6.06E-05,-5.68E-06,-2.65E-05,4.92E-06,-6.06E-05,-5.68E-06,-1.144920814,59.0490602,-231.58,214.23,1.023599568,0.032284684,0.984677588,1.219015519,1.014711957,0.68814518,0.060521019,2.386841657,0.674200291,1.24747897,1.61E-08,7.447036332,-1.243397978,0.659746063,-2.113329854,-0.373249382,32.23763636,0.018187272,32.18,32.27,0.208144796,-0.000316841,0,0,1
0,0.041117425,0.00109372,0.037842944,0.044035426,-0.041117405,0.00109372,-0.044035405,-0.037842926,-2.83E-05,7.53E-07,-3.03E-05,-2.60E-05,-2.83E-05,7.53E-07,-3.03E-05,-2.60E-05,0.31941775,29.02004839,-259.64,152.36,1.006522072,0.006722353,0.984115468,1.018045957,0.048568145,0.037507561,0.001761943,0.110310676,0.032640772,0.095938587,6.80E-08,0.635765801,-0.346084313,0.04777856,-0.405185209,-0.279920352,32.18279279,0.02131578,32.16,32.23,0.117580554,-0.000470253,0,0,1
0,0.041329912,0.005717459,0.008944696,0.088070851,-0.041329892,0.005717457,-0.088070809,-0.008944692,-2.84E-05,3.93E-06,-6.06E-05,-6.15E-06,-2.84E-05,3.93E-06,-6.06E-05,-6.15E-06,-0.046753394,44.76806707,-171.61,178.97,1.014744386,0.007243006,1.001448324,1.049481254,0.115846711,0.121756865,0.003942134,0.398363747,0.126805868,0.306311884,3.99E-08,1.654227714,-0.380453468,0.108218765,-0.672406009,-0.281342649,32.15781818,0.009083633,32.15,32.18,0.140271493,1.37E-05,0,0,1
0,0.038244891,0.008892753,0.000688054,0.088070851,-0.038243318,0.008899434,-0.088070809,0.000688053,-2.63E-05,6.12E-06,-6.06E-05,4.73E-07,-2.63E-05,6.12E-06,-6.06E-05,4.73E-07,0.054047484,62.86728713,-321.91,182.58,1.036298205,0.039392224,1.000170012,1.239808955,1.168560484,0.542180403,0.239373391,1.975081884,0.876517312,1.258741325,1.66E-08,6.256427058,-1.345867085,0.478643842,-2.021618488,-0.52612799,32.16990991,0.009999594,32.16,32.18,0.126625212,4.56E-05,0,0,1
0,0.036611608,0.001162366,0.022017713,0.053668175,-0.036611591,0.001162366,-0.05366815,-0.022017702,-2.52E-05,8.00E-07,-3.69E-05,-1.51E-05,-2.52E-05,8.00E-07,-3.69E-05,-1.51E-05,-0.38013009,23.94518065,-120.3,157.31,1.004888639,0.005431617,0.992910597,1.01478683,0.034685532,0.04946455,0.005346524,0.227523238,0.012128182,0.044424517,1.01E-07,0.382546385,-0.339073573,0.041952364,-0.5105681,-0.300934914,32.14954545,0.016645303,32.11,32.18,0.185520362,-0.000382616,0,0,1
0,0.036829544,0.000357275,0.035778783,0.037842944,-0.036829526,0.000357275,-0.037842926,-0.035778766,-2.53E-05,2.46E-07,-2.60E-05,-2.46E-05,-2.53E-05,2.46E-07,-2.60E-05,-2.46E-05,0.445067873,18.83394263,-89.74,72.33,0.993619178,0.002661767,0.984518931,1.000415894,0.017240008,0.011556992,0.001399325,0.046635396,0.013347173,0.044170306,9.08E-08,0.2901314,-0.366911088,0.012712809,-0.384928239,-0.345331047,32.13882883,0.012926594,32.11,32.16,0.081447964,-3.69E-06,0,0,1
0,0.039291437,0.003765441,0.01376107,0.063300924,-0.039291418,0.003765439,-0.063300894,-0.013761064,-2.70E-05,2.59E-06,-4.36E-05,-9.47E-06,-2.70E-05,2.59E-06,-4.36E-05,-9.47E-06,-0.269830413,51.27652649,-260.51,355.3,1.011408492,0.044229481,0.983577853,1.290566317,1.491642653,1.275799634,0.002661654,3.562942867,1.265098418,2.49736438,1.37E-08,19.15183213,-1.769337853,1.176855224,-3.430891583,-0.353979061,32.14745455,0.010307664,32.11,32.16,0.185415489,9.49E-05,0,0,1
0,0.040720471,0.005064061,0.012384963,0.088070851,-0.040720452,0.005064058,-0.088070809,-0.012384958,-2.80E-05,3.48E-06,-6.06E-05,-8.52E-06,-2.80E-05,3.48E-06,-6.06E-05,-8.52E-06,-0.181012443,43.64593051,-230.64,303.89,1.016554846,0.013156156,1.004472127,1.089973607,0.357142845,0.370123897,0.031041555,1.707657207,0.16740742,0.375433519,3.46E-08,3.34625706,-0.61433798,0.360967345,-1.956171033,-0.291117087,32.15414414,0.010777727,32.13,32.18,0.099547511,1.91E-05,0,0,1
0,0.042831915,0.005311558,0.004128321,0.088070851,-0.042768143,0.005802567,-0.088070809,0.016513277,-2.94E-05,3.99E-06,-6.06E-05,1.14E-05,-2.94E-05,3.99E-06,-6.06E-05,1.14E-05,-0.135466365,45.38115645,-263.74,234.32,1.007588687,0.023388919,0.984213992,1.148439262,1.085347746,1.008867214,0.023965353,2.863728251,1.10673081,1.890110862,2.13E-08,9.705233258,-1.378266501,0.98251661,-2.958328059,-0.337895389,32.154,0.010018165,32.13,32.18,0.253250424,3.17E-05,0,0,1
0,0.042606391,0.001778269,0.02339382,0.051604014,-0.042606371,0.001778269,-0.05160399,-0.023393809,-2.93E-05,1.22E-06,-3.55E-05,-1.61E-05,-2.93E-05,1.22E-06,-3.55E-05,-1.61E-05,0.81081448,49.03380462,-163.73,266.09,1.026671603,0.033493009,1.00112554,1.234533368,1.168280347,0.860074715,0.085475941,3.22188824,0.702063352,1.075300856,1.55E-08,6.351206934,-1.38486064,0.775326918,-2.905823222,-0.385361067,32.08567568,0.035402998,32.03,32.16,0.108597285,-0.00095279,0,0,1
0,0.036964975,0.005356134,0.012384963,0.050227907,-0.036964958,0.005356132,-0.050227884,-0.012384958,-2.54E-05,3.69E-06,-3.46E-05,-8.52E-06,-2.54E-05,3.69E-06,-3.46E-05,-8.52E-06,-0.411334842,45.10884224,-129.47,265.05,1.12306802,0.146609549,0.992813453,1.785362665,6.859938821,2.569594043,1.055784972,10.84828019,5.55457933,7.115704177,6.87E-09,38.37038024,-6.686481781,2.292826539,-9.364055594,-1.380571439,32.05727273,0.01445426,32.03,32.07,0.108597285,0.000105313,0,0,1
0,0.031439532,0.004409576,0.010320803,0.050915961,-0.031439517,0.004409573,-0.050915937,-0.010320798,-2.16E-05,3.03E-06,-3.50E-05,-7.10E-06,-2.16E-05,3.03E-06,-3.50E-05,-7.10E-06,0.326314302,78.56155431,-361.31,325.92,1.149180931,0.133218103,1.061286456,1.718226866,2.516058745,1.062382961,1.093565796,4.976671875,1.721797523,2.868066446,1.58E-08,17.91108422,-2.238486257,0.810646387,-4.288364441,-1.084216384,32.06387387,0.014897316,32.03,32.09,0.09044658,3.19E-05,0,0,1
0,0.030787282,0.000825915,0.028210195,0.035778783,-0.030787267,0.000825914,-0.035778766,-0.028210181,-2.12E-05,5.68E-07,-2.46E-05,-1.94E-05,-2.12E-05,5.68E-07,-2.46E-05,-1.94E-05,-0.324762443,27.16598099,-176.5,140.46,1.080952264,0.008840273,1.060667942,1.105173123,0.331509756,0.522528508,0.021669659,2.081384206,0.111643325,0.264083974,5.57E-08,1.452261021,-0.32898333,0.503857928,-2.036646532,-0.015777801,32.10681818,0.036254951,32.03,32.16,0.063348416,0.001063634,0,0,1
0,0.032470684,0.000717117,0.029586302,0.039219051,-0.032470669,0.000717117,-0.039219032,-0.029586288,-2.23E-05,4.93E-07,-2.70E-05,-2.04E-05,-2.23E-05,4.93E-07,-2.70E-05,-2.04E-05,-0.690531374,20.48653561,-123.42,145.72,1.078264428,0.018980175,1.064482215,1.201976107,0.189217926,0.263805012,0.002781816,1.024083112,0.196843247,0.51614791,2.40E-08,4.201132787,-0.197516117,0.232757338,-0.707279841,-0.015915958,32.23243243,0.041464545,32.16,32.31,0.275862069,0.001223412,0,0,1
0,0.033530156,0.000538492,0.030274355,0.03509073,-0.03353014,0.000538492,-0.035090713,-0.030274341,-2.31E-05,3.71E-07,-2.41E-05,-2.08E-05,-2.31E-05,3.71E-07,-2.41E-05,-2.08E-05,0.9914819,22.30313009,-151.04,96.73,1.092868986,0.007193427,1.0814718,1.119795157,0.230889064,0.272500299,0.010205964,0.857933554,0.131889996,0.308128301,1.00E-07,1.933362256,-0.18052635,0.246597986,-0.707233875,0.021984883,32.35522523,0.029126838,32.31,32.41,0.099547511,0.000797473,0,0,1
0,0.033343354,0.002105468,0.013073017,0.051604014,-0.033343338,0.002105467,-0.05160399,-0.013073011,-2.29E-05,1.45E-06,-3.55E-05,-8.99E-06,-2.29E-05,1.45E-06,-3.55E-05,-8.99E-06,-0.110361786,18.55972662,-124.57,78.59,1.081057311,0.005847275,1.065693829,1.10691077,0.059337628,0.032334815,0.008914864,0.149330046,0.051584363,0.127054739,6.57E-08,0.62518611,-0.056335097,0.032816832,-0.173054212,-0.01931452,32.45254545,0.032429963,32.39,32.5,0.266817411,0.000951063,0,0,1
0,0.031543051,0.002143138,0.01376107,0.03715489,-0.031543036,0.002143137,-0.037154873,-0.013761064,-2.17E-05,1.47E-06,-2.56E-05,-9.47E-06,-2.17E-05,1.47E-06,-2.56E-05,-9.47E-06,-0.047997738,41.87964405,-190.26,159,1.073999106,0.009966828,1.058922385,1.120929678,0.209621733,0.110172025,0.010243404,0.381525922,0.14746464,0.330005746,3.43E-08,1.632824363,-0.235390197,0.088014648,-0.340671908,-0.086012205,32.57288288,0.04793741,32.49,32.63,0.113122172,0.001440856,0,0,1
0,0.03197036,0.000661025,0.027522141,0.03509073,-0.031970345,0.000661025,-0.035090713,-0.027522128,-2.20E-05,4.55E-07,-2.41E-05,-1.89E-05,-2.20E-05,4.55E-07,-2.41E-05,-1.89E-05,-0.145865385,16.05038636,-66.62,71.88,1.060240748,0.003770954,1.05232635,1.072863499,0.052453372,0.059413856,0.005492663,0.298657543,0.069469965,0.166079511,1.37E-07,0.955261354,-0.133328158,0.065806408,-0.407386725,-0.087096054,32.65363636,0.016554443,32.63,32.71,0.190045249,0.000315578,0,0,1
0,0.03263662,0.000383806,0.031650462,0.033026569,-0.032636605,0.000383806,-0.033026554,-0.031650447,-2.25E-05,2.64E-07,-2.27E-05,-2.18E-05,-2.25E-05,2.64E-07,-2.27E-05,-2.18E-05,0.069638214,5.65311201,-25.63,16.44,1.019802809,0.002355972,1.014693475,1.026020207,0.007603518,0.006931511,0.000240916,0.028548749,0.003923015,0.014903394,8.81E-08,0.08746332,-0.251549065,0.004801928,-0.257350919,-0.243138382,33.02414414,0.017932228,33,33.05,0.13566987,-0.0001841,1,0,0
0,0.032113575,0.000523903,0.028898248,0.034402676,-0.03211356,0.000523903,-0.03440266,-0.028898234,-2.21E-05,3.60E-07,-2.37E-05,-1.99E-05,-2.21E-05,3.60E-07,-2.37E-05,-1.99E-05,0.006600679,5.374609618,-14.32,13.13,1.015942901,0.001785346,1.011095206,1.019447561,0.007339738,0.006543137,0.000100847,0.027479,0.007369348,0.024157511,1.09E-07,0.150269252,-0.267076839,0.007907743,-0.285213238,-0.25203629,33.01090909,0.016544456,32.99,33.05,0.14479638,0.000150035,1,0,0
0,0.03143044,0.005332575,0.008944696,0.059172603,-0.031430426,0.005332572,-0.059172575,-0.008944692,-2.16E-05,3.67E-06,-4.07E-05,-6.15E-06,-2.16E-05,3.67E-06,-4.07E-05,-6.15E-06,-0.984222725,65.00911237,-533.55,308.24,1.022345731,0.008406181,1.002042489,1.056527414,0.045180327,0.033844019,0.013957293,0.16250615,0.034262249,0.117566931,3.79E-08,1.037986597,-0.27927515,0.01877997,-0.323525714,-0.252490409,33.00828829,0.01610069,32.99,33.05,0.09044658,-0.000131099,1,0,0
0,0.027760313,0.008365287,0.002064161,0.070869513,-0.0277603,0.008365283,-0.070869479,-0.00206416,-1.91E-05,5.76E-06,-4.88E-05,-1.42E-06,-1.91E-05,5.76E-06,-4.88E-05,-1.42E-06,1.307845023,93.4207458,-492.94,668.51,1.016511414,0.00427532,0.995686478,1.024087932,0.051985289,0.03647253,0.008302584,0.113175871,0.039440551,0.107291064,6.46E-08,0.57237572,-0.308851695,0.033022195,-0.354382465,-0.27020581,32.97882883,0.012926594,32.95,33,0.099547511,-7.92E-05,1,0,0
0,0.030567011,0.000425501,0.028898248,0.031650462,-0.030566997,0.000425501,-0.031650447,-0.028898234,-2.10E-05,2.93E-07,-2.18E-05,-1.99E-05,-2.10E-05,2.93E-07,-2.18E-05,-1.99E-05,-0.469400791,6.98254732,-37.01,27.29,1.015905977,0.001661017,1.01116269,1.018973485,0.006472038,0.003465923,0.00035008,0.013856376,0.004810162,0.016386583,1.38E-07,0.092288548,-0.266313867,0.002182951,-0.270088608,-0.262685922,32.96054545,0.012851343,32.95,32.99,0.131147541,-0.000106215,1,0,0
0,0.030235438,0.000610158,0.028898248,0.031650462,-0.030235424,0.000610158,-0.031650447,-0.028898234,-2.08E-05,4.20E-07,-2.18E-05,-1.99E-05,-2.08E-05,4.20E-07,-2.18E-05,-1.99E-05,0.059044118,5.498967441,-17.28,11.91,1.015365168,0.001774078,1.008506011,1.019345208,0.004989229,0.00310031,0.000755032,0.015100512,0.003504329,0.015897831,1.02E-07,0.139607843,-0.266804723,0.002653352,-0.270618446,-0.263472245,32.93198198,0.015411463,32.91,32.97,0.140271493,-0.000335205,1,0,0
0,0.029739635,0.000432384,0.028210195,0.030274355,-0.029739621,0.000432384,-0.030274341,-0.028210181,-2.05E-05,2.98E-07,-2.08E-05,-1.94E-05,-2.05E-05,2.98E-07,-2.08E-05,-1.94E-05,-0.017901584,5.083291686,-13.82,15.12,1.013744907,0.002071932,1.00756535,1.018883781,0.009588901,0.003807217,0.001986165,0.01701203,0.007483221,0.018997535,1.25E-07,0.098167883,-0.278005251,0.005030904,-0.284091701,-0.269075313,32.90454545,0.01398937,32.89,32.93,0.14479638,-0.000112526,1,0,0
0,0.029783777,0.00092315,0.026834087,0.035778783,-0.029783763,0.000923149,-0.035778766,-0.026834075,-2.05E-05,6.35E-07,-2.46E-05,-1.85E-05,-2.05E-05,6.35E-07,-2.46E-05,-1.85E-05,0.028722442,16.66026187,-129.4,137.34,1.011961853,0.001592567,1.008155168,1.015110702,0.004470377,0.002059258,0.001026125,0.009227358,0.00348993,0.012254976,1.32E-07,0.060445938,-0.279958662,0.001240681,-0.284261418,-0.278159724,32.88441441,0.014867868,32.84,32.91,0.153759186,-0.000183573,1,0,0
0,0.033899868,0.00089386,0.028898248,0.038530997,-0.033899852,0.000893859,-0.038530979,-0.028898234,-2.33E-05,6.15E-07,-2.65E-05,-1.99E-05,-2.33E-05,6.15E-07,-2.65E-05,-1.99E-05,0.111317873,9.667117921,-83.56,30.05,1.006155173,0.00290038,0.996533439,1.013824045,0.005390627,0.004033644,0.0006593,0.014062153,0.004986279,0.016789279,5.96E-08,0.0898239,-0.304354399,0.011143349,-0.321351243,-0.284558,32.88781818,0.014357881,32.87,32.91,0.153846154,0.000180511,1,0,0
0,0.032774387,0.00203348,0.028898248,0.041283211,-0.032774371,0.002033479,-0.041283192,-0.028898234,-2.26E-05,1.40E-06,-2.84E-05,-1.99E-05,-2.26E-05,1.40E-06,-2.84E-05,-1.99E-05,0.038264556,9.805944943,-29.08,51.2,1.004316926,0.003384754,0.997601002,1.01111301,0.010001656,0.006730401,0.000589909,0.028034392,0.006968336,0.027377139,1.29E-07,0.207042081,-0.31661497,0.007564426,-0.32197106,-0.293306743,32.89522523,0.012794062,32.87,32.91,0.144714528,-3.74E-05,1,0,0
0,0.028112124,0.001486133,0.024769927,0.031650462,-0.02811211,0.001486132,-0.031650447,-0.024769915,-1.93E-05,1.02E-06,-2.18E-05,-1.70E-05,-1.93E-05,1.02E-06,-2.18E-05,-1.70E-05,-0.096323529,9.154524328,-63.68,37.41,1.008017345,0.002081968,1.000109707,1.011533379,0.00859159,0.006620321,0.000192488,0.023813255,0.006562592,0.022838042,7.79E-08,0.145169449,-0.29999201,0.007899342,-0.310236699,-0.286634376,32.854,0.022449944,32.81,32.89,0.131221719,-0.000511778,1,0,0
0,0.027859559,0.00051154,0.026146034,0.028898248,-0.027859546,0.00051154,-0.028898234,-0.026146022,-1.92E-05,3.52E-07,-1.99E-05,-1.80E-05,-1.92E-05,3.52E-07,-1.99E-05,-1.80E-05,-0.0211645,5.935253227,-19.01,12.9,1.005820998,0.00177068,1.000502614,1.010117272,0.004903774,0.003361417,0.000789231,0.013490454,0.004012754,0.016422856,1.04E-07,0.106616922,-0.305335815,0.003041337,-0.308877237,-0.299483164,32.79234234,0.020221964,32.75,32.83,0.158281515,-0.000532468,1,0,0
0,0.027938553,0.000709217,0.02545798,0.035778783,-0.02793854,0.000709216,-0.035778766,-0.025457968,-1.92E-05,4.88E-07,-2.46E-05,-1.75E-05,-1.92E-05,4.88E-07,-2.46E-05,-1.75E-05,0.081216063,5.770773437,-16.02,23.52,1.004254993,0.0015698,0.99911716,1.007164396,0.006321551,0.006259998,2.45E-05,0.022724269,0.005456055,0.021635857,9.08E-08,0.144310176,-0.313221412,0.006972545,-0.330050343,-0.306798016,32.73163636,0.016652997,32.71,32.77,0.149321267,-0.000326669,1,0,0