,net_acc_mean,net_acc_std,net_acc_min,net_acc_max,ACC_x_mean,ACC_x_std,ACC_x_min,ACC_x_max,ACC_y_mean,ACC_y_std,ACC_y_min,ACC_y_max,ACC_z_mean,ACC_z_std,ACC_z_min,ACC_z_max,BVP_mean,BVP_std,BVP_min,BVP_max,EDA_mean,EDA_std,EDA_min,EDA_max,EDA_phasic_mean,EDA_phasic_std,EDA_phasic_min,EDA_phasic_max,EDA_smna_mean,EDA_smna_std,EDA_smna_min,EDA_smna_max,EDA_tonic_mean,EDA_tonic_std,EDA_tonic_min,EDA_tonic_max,TEMP_mean,TEMP_std,TEMP_min,TEMP_max,BVP_peak_freq,TEMP_slope,0,1,2
0,0.036529882,0.008098406,0.007568589,0.06054871,-0.036529865,0.008098402,-0.060548681,-0.007568585,-2.51E-05,5.57E-06,-4.17E-05,-5.21E-06,-2.51E-05,5.57E-06,-4.17E-05,-5.21E-06,-0.072516968,44.80811259,-222.82,192.64,6.3932309,0.282709265,5.949066829,7.22045868,1.156351262,0.546198315,0.16617994,2.159285631,0.783565348,1.313967855,3.84E-08,4.877759967,1.980637257,0.429286233,1.478461315,2.801340379,32.63727273,0.013811003,32.61,32.66,0.194570136,-4.29E-05,0,1,0
0,0.031846604,0.000461771,0.030962409,0.033026569,-0.031846589,0.000461771,-0.033026554,-0.030962394,-2.19E-05,3.18E-07,-2.27E-05,-2.13E-05,-2.19E-05,3.18E-07,-2.27E-05,-2.13E-05,-0.012261164,13.20858764,-33.58,19.47,5.953041747,0.127014366,5.685740872,6.111773752,0.02327613,0.033786862,0.000405672,0.154501854,0.007873475,0.018536278,1.16E-07,0.101473806,2.846239063,0.064510905,2.704328458,2.920818683,32.5881982,0.027841191,32.55,32.65,0.108535896,-0.000783082,0,1,0
0,0.029313882,0.005968212,0.006880535,0.052980121,-0.029313868,0.005968209,-0.052980096,-0.006880532,-2.02E-05,4.11E-06,-3.65E-05,-4.73E-06,-2.02E-05,4.11E-06,-3.65E-05,-4.73E-06,0.41783371,36.27305095,-125.72,178.35,5.432799061,0.126289159,5.149789154,5.679596502,0.103217334,0.13359392,2.22E-05,0.426327659,0.110811658,0.336964925,6.33E-08,2.039145801,2.450278876,0.19514815,2.005181374,2.700830955,32.55581818,0.020062712,32.53,32.59,0.090497738,0.000389514,0,1,0
0,0.027927976,0.00899423,0.006880535,0.055044282,-0.027927963,0.008994225,-0.055044256,-0.006880532,-1.92E-05,6.19E-06,-3.79E-05,-4.73E-06,-1.92E-05,6.19E-06,-3.79E-05,-4.73E-06,-0.369225551,50.92530725,-283.57,149.34,4.854845815,0.122068372,4.591183104,5.213635025,0.177326634,0.120815442,0.023671606,0.448759818,0.12626903,0.326585979,3.62E-08,1.759387516,2.025021346,0.103058073,1.853167236,2.17139389,32.61198198,0.018396035,32.55,32.65,0.09044658,0.00034047,0,1,0
0,0.035378716,0.007972226,0.001376107,0.047475693,-0.035367802,0.008020426,-0.047475671,0.003440266,-2.43E-05,5.52E-06,-3.27E-05,2.37E-06,-2.43E-05,5.52E-06,-3.27E-05,2.37E-06,-0.268557692,48.48702223,-240.18,345.41,4.481912531,0.170858414,3.938778669,4.789490414,0.282447684,0.123391502,0.070618753,0.466046792,0.228444782,0.41349221,2.71E-08,3.087906494,1.693026266,0.12658128,1.409808565,1.864402828,32.66918919,0.023677074,32.61,32.71,0.117647059,0.00050158,0,1,0
0,0.037396176,0.001423789,0.028898248,0.055044282,-0.037396158,0.001423788,-0.055044256,-0.028898234,-2.57E-05,9.80E-07,-3.79E-05,-1.99E-05,-2.57E-05,9.80E-07,-3.79E-05,-1.99E-05,-0.040016959,20.33395353,-64.06,41.72,3.954749683,0.178727692,3.623269892,4.263778053,0.110665708,0.14504148,0.001099045,0.434401991,0.052593512,0.12707303,5.15E-08,0.562346895,1.544490294,0.073612919,1.407025894,1.63817756,32.657,0.013588096,32.63,32.71,0.113058225,-2.57E-05,0,1,0
0,0.037963587,0.000261637,0.037842944,0.038530997,-0.037963569,0.000261637,-0.038530979,-0.037842926,-2.61E-05,1.80E-07,-2.65E-05,-2.60E-05,-2.61E-05,1.80E-07,-2.65E-05,-2.60E-05,0.130164027,11.56086294,-28.42,20.13,3.372301868,0.13430373,3.15220042,3.6181158,0.000907215,0.001304716,1.18E-05,0.004285343,0.000641274,0.003575336,1.53E-07,0.034928439,1.300146851,0.080429969,1.167783237,1.449818341,32.76693694,0.03355224,32.71,32.81,0.108597285,0.001001404,0,1,0
0,0.037351032,0.001247545,0.030962409,0.045411533,-0.037351015,0.001247544,-0.045411511,-0.030962394,-2.57E-05,8.58E-07,-3.12E-05,-2.13E-05,-2.57E-05,8.58E-07,-3.12E-05,-2.13E-05,-0.117658371,20.03575481,-157.94,80.39,2.951931084,0.121405178,2.731062712,3.148926107,0.005978447,0.007992285,8.32E-07,0.030984393,0.006047674,0.027084419,7.00E-08,0.267064576,1.03975303,0.076449038,0.894782013,1.165568449,32.81909091,0.018999783,32.77,32.84,0.113122172,-0.000377973,0,1,0
0,0.040361142,0.002884936,0.029586302,0.053668175,-0.040361123,0.002884935,-0.05366815,-0.029586288,-2.78E-05,1.98E-06,-3.69E-05,-2.04E-05,-2.78E-05,1.98E-06,-3.69E-05,-2.04E-05,0.103058225,19.32917869,-54.59,67.58,2.608016475,0.086552174,2.46188114,2.834874341,0.023597121,0.030707039,5.18E-05,0.124913671,0.016717893,0.089216538,2.81E-08,0.877579442,0.812951431,0.032232341,0.751454975,0.891510866,32.74603604,0.025158212,32.71,32.79,0.108535896,-0.000722359,0,1,0
0,0.031446537,0.007314635,0.015137178,0.044723479,-0.031446522,0.007314631,-0.044723458,-0.01513717,-2.16E-05,5.03E-06,-3.08E-05,-1.04E-05,-2.16E-05,5.03E-06,-3.08E-05,-1.04E-05,-0.201798643,26.14903962,-85.1,114.32,2.378490143,0.060656622,2.279513203,2.557503871,0.034493532,0.039588216,3.16E-05,0.14882362,0.028302369,0.095914963,3.31E-08,0.777521021,0.66286922,0.050138331,0.60402142,0.750268867,32.67472727,0.018572173,32.65,32.71,0.113122172,-0.000287807,0,1,0
0,0.024473379,0.009452002,0,0.052980121,-0.02268474,0.013179094,-0.052980096,0.015825224,-1.56E-05,9.07E-06,-3.65E-05,1.09E-05,-1.56E-05,9.07E-06,-3.65E-05,1.09E-05,0.170463539,38.20309241,-117.7,116.69,2.270280767,0.05197825,2.150515497,2.405590203,0.020657354,0.030994357,0.001090272,0.122858351,0.017213082,0.127127586,7.71E-08,1.330308005,0.610691456,0.036625881,0.523143447,0.650796875,32.78207207,0.05607455,32.66,32.87,0.108535896,0.001685504,0,1,0
0,0.03341574,0.007908018,0.002064161,0.054356228,-0.033392374,0.00800604,-0.054356203,0.004128319,-2.30E-05,5.51E-06,-3.74E-05,2.84E-06,-2.30E-05,5.51E-06,-3.74E-05,2.84E-06,0.237466063,28.16870317,-161.73,146.34,2.068551812,0.036752948,1.988099621,2.145400287,0.019393741,0.018655603,0.000604843,0.057002654,0.011889708,0.058564104,8.39E-08,0.569109881,0.489425252,0.019183444,0.463772506,0.520659076,32.82781818,0.012459521,32.79,32.84,0.135746606,-0.000230102,0,1,0
0,0.033204608,0.008046773,0.004816375,0.04678764,-0.033204592,0.008046769,-0.046787618,-0.004816372,-2.28E-05,5.54E-06,-3.22E-05,-3.31E-06,-2.28E-05,5.54E-06,-3.22E-05,-3.31E-06,-0.139191634,45.84221797,-152.58,185.1,2.077044128,0.032853761,2.033068107,2.154970774,0.015067201,0.017233697,0.000343823,0.058797021,0.01216363,0.053856245,5.48E-08,0.509189328,0.498945652,0.006875341,0.48958711,0.514320743,32.84045045,0.020941247,32.81,32.87,0.104013567,0.000444717,0,1,0
0,0.037014011,0.002160743,0.021329659,0.052980121,-0.037013993,0.002160742,-0.052980096,-0.021329649,-2.55E-05,1.49E-06,-3.65E-05,-1.47E-05,-2.55E-05,1.49E-06,-3.65E-05,-1.47E-05,0.853687783,33.39132585,-111.65,124.46,2.017983399,0.039851915,1.87066778,2.069290575,0.014536542,0.014943477,0.000894287,0.052010441,0.013107752,0.032201356,7.01E-08,0.237967636,0.463063925,0.036894982,0.368614376,0.499413281,32.834,0.010374795,32.79,32.87,0.095022624,-0.000208642,0,1,0
0,0.038333299,0.001316645,0.031650462,0.042659319,-0.038333281,0.001316644,-0.042659298,-0.031650447,-2.64E-05,9.06E-07,-2.94E-05,-2.18E-05,-2.64E-05,9.06E-07,-2.94E-05,-2.18E-05,-0.958738688,25.98189286,-127.18,95.27,1.818790878,0.05756878,1.726966537,1.901170808,0.025511144,0.008351576,0.007810579,0.046884578,0.017915608,0.037734455,3.23E-08,0.234820482,0.331868312,0.033870782,0.284028679,0.368916622,32.81558559,0.013993865,32.79,32.83,0.104072398,0.000138996,0,1,0
0,0.038320845,0.002000327,0.019953552,0.044723479,-0.038320827,0.002000326,-0.044723458,-0.019953543,-2.64E-05,1.38E-06,-3.08E-05,-1.37E-05,-2.64E-05,1.38E-06,-3.08E-05,-1.37E-05,0.095234596,12.05504368,-28.3,24.77,1.652375752,0.041767098,1.582823228,1.72473171,0.001856979,0.003928738,1.41E-05,0.028417487,0.003841597,0.035163082,9.92E-08,0.369491772,0.254150819,0.024335915,0.212101007,0.287146671,32.84218182,0.012164166,32.83,32.87,0.108535896,0.000183937,0,1,0
0,0.039286767,0.0036097,0.020641606,0.050227907,-0.039286748,0.003609698,-0.050227884,-0.020641596,-2.70E-05,2.48E-06,-3.46E-05,-1.42E-05,-2.70E-05,2.48E-06,-3.46E-05,-1.42E-05,-0.265955882,97.46038885,-815.51,378.75,1.487532254,0.092925645,1.361321422,1.663156431,0.029778206,0.016418864,0.00138139,0.056426763,0.019736079,0.066348706,4.78E-08,0.391573442,0.125651655,0.045166672,0.079163238,0.211129214,32.84441441,0.018777247,32.81,32.89,0.095022624,-0.00036741,0,1,0
0,0.041908291,0.00141096,0.036466837,0.047475693,-0.041908271,0.001410959,-0.047475671,-0.03646682,-2.88E-05,9.71E-07,-3.27E-05,-2.51E-05,-2.88E-05,9.71E-07,-3.27E-05,-2.51E-05,-0.353606557,97.89294852,-564.25,597.3,1.329283533,0.02309167,1.289143883,1.37546281,0.009302781,0.007074618,0.000212117,0.020115964,0.007556133,0.027074219,7.84E-08,0.194125908,0.050333942,0.015182603,0.025185261,0.078614064,32.822,0.010339685,32.81,32.84,0.144714528,-8.01E-05,0,1,0
0,0.040225446,0.003561406,0.028898248,0.055044282,-0.040225427,0.003561404,-0.055044256,-0.028898234,-2.77E-05,2.45E-06,-3.79E-05,-1.99E-05,-2.77E-05,2.45E-06,-3.79E-05,-1.99E-05,0.561911765,51.6220116,-264.29,290.62,1.249674842,0.047683848,1.162249103,1.366004455,0.020160495,0.012375309,0.001823727,0.044592713,0.015403695,0.060741288,4.21E-08,0.403925896,-0.009100059,0.032305734,-0.051948683,0.029610347,32.87666667,0.031689181,32.81,32.95,0.104072398,0.00079484,0,1,0
0,0.039402739,0.002594456,0.033714623,0.046099586,-0.039402721,0.002594455,-0.046099564,-0.033714607,-2.71E-05,1.79E-06,-3.17E-05,-2.32E-05,-2.71E-05,1.79E-06,-3.17E-05,-2.32E-05,0.002573529,33.81568648,-268.89,292.91,1.141226891,0.042297435,1.079823894,1.225589919,0.012284216,0.015629438,0.000162855,0.064187215,0.009090529,0.043780112,4.49E-08,0.336973219,-0.066938105,0.022255466,-0.091163954,-0.027604689,33.08563636,0.069954885,32.95,33.21,0.113122172,0.002145572,0,1,0
0,0.039493027,0.004108806,0.01376107,0.061236764,-0.039493008,0.004108804,-0.061236735,-0.013761064,-2.72E-05,2.83E-06,-4.21E-05,-9.47E-06,-2.72E-05,2.83E-06,-4.21E-05,-9.47E-06,-0.040870548,43.96481783,-286.28,350.83,1.040277504,0.028387884,0.972395018,1.0816113,0.016199224,0.019300638,1.18E-06,0.059150748,0.015795865,0.057293988,4.57E-08,0.329430321,-0.1322543,0.031164365,-0.192454127,-0.091685702,33.24513514,0.019858276,33.18,33.27,0.108535896,0.000442085,0,1,0
0,0.02773385,0.013511099,0,0.075685888,-0.027724497,0.013530248,-0.075685852,0.00206416,-1.91E-05,9.31E-06,-5.21E-05,1.42E-06,-1.91E-05,9.31E-06,-5.21E-05,1.42E-06,-0.21510181,80.43200307,-346.01,596.91,0.984473323,0.030123729,0.915707943,1.089097481,0.03847615,0.01767824,0.004344017,0.076917357,0.027837868,0.084368677,4.22E-08,0.443387154,-0.188636662,0.010805965,-0.204070154,-0.171071879,33.27509091,0.013865946,33.25,33.29,0.135746606,-0.000184658,0,1,0
0,0.024025119,0.020699872,0,0.05848455,-0.023714123,0.021055414,-0.058484522,0.007568585,-1.63E-05,1.45E-05,-4.02E-05,5.21E-06,-1.63E-05,1.45E-05,-4.02E-05,5.21E-06,0.280452233,25.7956575,-313.8,156.09,0.941428868,0.067787195,0.863662184,1.025562103,0.034916285,0.020135489,0.006926553,0.068497667,0.025634391,0.050167368,2.78E-08,0.411261086,-0.211168789,0.021927011,-0.24051567,-0.181546093,33.24837838,0.018431296,33.21,33.27,0.113058225,6.95E-05,0,1,0
0,0.041863854,0.000253987,0.041283211,0.042659319,-0.041863834,0.000253987,-0.042659298,-0.041283192,-2.88E-05,1.75E-07,-2.94E-05,-2.84E-05,-2.88E-05,1.75E-07,-2.94E-05,-2.84E-05,0.087511312,7.312599918,-24.5,15.51,0.832693619,0.01917271,0.799950689,0.864606873,0.000557591,0.001156355,7.57E-07,0.006192809,5.32E-05,0.00040153,8.65E-08,0.00406819,-0.242716268,0.011119036,-0.261980922,-0.227509507,33.32513514,0.031447507,33.27,33.39,0.113122172,0.000865567,0,1,0
0,0.042112923,0.000736376,0.03715489,0.0488518,-0.042112903,0.000736376,-0.048851777,-0.037154873,-2.90E-05,5.07E-07,-3.36E-05,-2.56E-05,-2.90E-05,5.07E-07,-3.36E-05,-2.56E-05,-0.001345393,9.508027604,-45.74,37.84,0.768805945,0.016846256,0.740943378,0.799530954,4.96E-05,0.000100687,2.50E-07,0.000387699,3.87E-05,0.000398703,1.67E-07,0.004201211,-0.281224189,0.01024856,-0.297701152,-0.262357299,33.43709091,0.020817189,33.39,33.47,0.126625212,0.000511327,0,1,0
0,0.042267813,0.000340735,0.041971265,0.042659319,-0.042267793,0.000340735,-0.042659298,-0.041971245,-2.91E-05,2.34E-07,-2.94E-05,-2.89E-05,-2.91E-05,2.34E-07,-2.94E-05,-2.89E-05,-0.048930995,7.18712323,-16.8,10.21,0.713296772,0.016039905,0.685284454,0.740298898,1.06E-06,1.67E-06,2.37E-07,9.40E-06,3.11E-07,2.34E-07,1.31E-07,2.18E-06,-0.314723951,0.009618522,-0.330839298,-0.297989768,33.43630631,0.010732449,33.41,33.45,0.108597285,-7.34E-05,0,1,0
0,0.036895703,0.0034179,0.028898248,0.049539854,-0.036895685,0.003417898,-0.04953983,-0.028898234,-2.54E-05,2.35E-06,-3.41E-05,-1.99E-05,-2.54E-05,2.35E-06,-3.41E-05,-1.99E-05,-0.087556561,21.10173047,-89.41,56.43,0.659513927,0.022868608,0.626149667,0.696909189,0.002546361,0.003441111,5.61E-07,0.010599111,0.001959892,0.006597599,6.46E-08,0.041903838,-0.350232735,0.010730754,-0.366722048,-0.331162339,33.41672727,0.027505672,33.34,33.45,0.090497738,-0.000705092,0,1,0
0,0.033496933,0.002043115,0.028210195,0.036466837,-0.033496918,0.002043114,-0.03646682,-0.028210181,-2.30E-05,1.41E-06,-2.51E-05,-1.94E-05,-2.30E-05,1.41E-06,-2.51E-05,-1.94E-05,0.055715093,19.5964321,-47.52,99.7,0.604860058,0.013280609,0.578446662,0.626505588,4.08E-05,7.16E-05,2.98E-07,0.00026209,3.16E-05,0.000223294,1.03E-07,0.001728254,-0.380769733,0.00809435,-0.396003823,-0.366965872,33.29288288,0.030855297,33.23,33.34,0.108535896,-0.000884258,0,1,0
0,0.017967226,0.010581034,0.000688054,0.048163747,-0.006067944,0.019948913,-0.048163724,0.035090713,-4.18E-06,1.37E-05,-3.31E-05,2.41E-05,-4.18E-06,1.37E-05,-3.31E-05,2.41E-05,0.055865385,31.54503467,-124.93,183.76,0.584060141,0.021049828,0.55481352,0.64857835,0.009397939,0.011943899,1.83E-06,0.045617792,0.007287096,0.036815301,3.61E-08,0.303607421,-0.402843511,0.008517022,-0.413668346,-0.386467254,33.22472727,0.015765849,33.18,33.25,0.099547511,-0.000133535,0,1,0
0,0.008362497,0.003697836,0.003440268,0.017201338,0.008362493,0.003697834,0.003440266,0.01720133,5.75E-06,2.54E-06,2.37E-06,1.18E-05,5.75E-06,2.54E-06,2.37E-06,1.18E-05,0.130457886,21.24994031,-75.86,83.96,0.591815026,0.004443051,0.577005872,0.598452045,7.68E-05,0.000185858,2.60E-07,0.000992801,2.81E-07,1.36E-07,1.19E-07,7.29E-07,-0.388677467,0.002415724,-0.393505923,-0.385502351,33.19324324,0.023371738,33.16,33.23,0.104013567,-0.000402685,0,1,0
0,0.015207228,0.001534149,0.006880535,0.022017713,0.015207221,0.001534148,0.006880532,0.022017702,1.05E-05,1.06E-06,4.73E-06,1.51E-05,1.05E-05,1.06E-06,4.73E-06,1.51E-05,0.105180995,19.15240785,-84.71,56.57,0.570543487,0.010371697,0.538270826,0.583321222,0.000749793,0.001365018,2.39E-07,0.006217035,0.001283158,0.008320971,5.55E-08,0.083224203,-0.402260061,0.006359603,-0.4155066,-0.393658302,33.16763636,0.01174945,33.15,33.18,0.108597285,-4.26E-05,0,1,0
0,0.027920979,0.007859243,0.001376107,0.057108443,-0.009020883,0.027567583,-0.057108415,0.028210181,-6.21E-06,1.90E-05,-3.93E-05,1.94E-05,-6.21E-06,1.90E-05,-3.93E-05,1.94E-05,-0.241407575,49.64859758,-323.02,339.8,0.528351377,0.029168222,0.479017838,0.562054075,0.006862144,0.006980689,0.000176977,0.028424142,0.005705496,0.024414249,6.41E-08,0.165125279,-0.434271415,0.020052201,-0.461822035,-0.411393715,33.16162162,0.01027027,33.15,33.18,0.126625212,4.23E-05,0,1,0
0,0.035965585,0.000323026,0.035778783,0.037842944,-0.035965568,0.000323025,-0.037842926,-0.035778766,-2.47E-05,2.22E-07,-2.60E-05,-2.46E-05,-2.47E-05,2.22E-07,-2.60E-05,-2.46E-05,-0.075062217,10.91159577,-38.1,36.59,0.487107478,0.014522017,0.466832792,0.518453088,0.001751742,0.003422388,2.79E-06,0.016748772,0.000210421,0.001122301,8.06E-08,0.008304986,-0.454031334,0.006718163,-0.464657796,-0.443957593,33.174,0.009165151,33.16,33.18,0.104072398,-0.000107928,0,1,0
0,0.036505754,0.001055216,0.034402676,0.039219051,-0.036505737,0.001055215,-0.039219032,-0.03440266,-2.51E-05,7.26E-07,-2.70E-05,-2.37E-05,-2.51E-05,7.26E-07,-2.70E-05,-2.37E-05,0.086589367,10.32924725,-57.41,39.08,0.448372268,0.010838347,0.429308158,0.467791498,5.38E-07,4.05E-07,2.77E-07,2.50E-06,2.87E-07,8.98E-08,1.63E-07,5.61E-07,-0.475894892,0.006512679,-0.487606541,-0.464887258,33.16612613,0.013501496,33.15,33.21,0.113122172,-0.000101966,0,1,0
0,0.037607885,0.00032795,0.036466837,0.037842944,-0.037607867,0.00032795,-0.037842926,-0.03646682,-2.59E-05,2.26E-07,-2.60E-05,-2.51E-05,-2.59E-05,2.26E-07,-2.60E-05,-2.51E-05,-0.105635953,6.681792203,-18.96,12.65,0.417031836,0.006512476,0.408064465,0.42877441,3.88E-07,1.42E-07,2.75E-07,8.11E-07,3.19E-07,1.70E-07,1.95E-07,1.02E-06,-0.494970224,0.004004452,-0.500885809,-0.487770899,33.14636364,0.011178492,33.13,33.16,0.108535896,-8.15E-05,0,1,0
0,0.031293982,0.003706056,0.028210195,0.038530997,-0.031293967,0.003706054,-0.038530979,-0.028210181,-2.15E-05,2.55E-06,-2.65E-05,-1.94E-05,-2.15E-05,2.55E-06,-2.65E-05,-1.94E-05,-0.020265837,7.280196274,-49.57,37.95,0.406808235,0.002185507,0.402060685,0.41089199,0.000237951,0.000435082,1.93E-07,0.00153318,0.000183076,0.00111692,1.20E-07,0.010332812,-0.501291125,0.000653457,-0.503118453,-0.50030091,33.13558559,0.009926276,33.11,33.16,0.104072398,-2.76E-05,0,1,0
0,0.028902135,5.16E-05,0.028898248,0.029586302,-0.028902122,5.16E-05,-0.029586288,-0.028898234,-1.99E-05,3.55E-08,-2.04E-05,-1.99E-05,-1.99E-05,3.55E-08,-2.04E-05,-1.99E-05,0.065455059,7.103863297,-29.51,28.53,0.394978361,0.004816054,0.386460155,0.403851874,4.35E-07,1.99E-07,2.61E-07,1.27E-06,2.71E-07,8.31E-08,1.57E-07,5.43E-07,-0.508368562,0.002845042,-0.513097235,-0.503239453,33.13818182,0.013292638,33.11,33.15,0.104013567,6.36E-05,0,1,0
0,0.029429855,0.000288389,0.028898248,0.029586302,-0.029429841,0.000288389,-0.029586288,-0.028898234,-2.02E-05,1.98E-07,-2.04E-05,-1.99E-05,-2.02E-05,1.98E-07,-2.04E-05,-1.99E-05,0.080797511,6.222537428,-16.49,9.42,0.381148533,0.003527746,0.374289655,0.38692416,3.62E-07,6.97E-08,2.75E-07,5.34E-07,2.80E-07,8.03E-08,1.81E-07,5.66E-07,-0.516741716,0.002192904,-0.52054942,-0.513167407,33.13540541,0.012859867,33.11,33.15,0.113122172,-2.83E-05,0,1,0
0,0.031051139,0.004099506,0.028210195,0.046099586,-0.031051125,0.004099504,-0.046099564,-0.028210181,-2.14E-05,2.82E-06,-3.17E-05,-1.94E-05,-2.14E-05,2.82E-06,-3.17E-05,-1.94E-05,-0.198947964,10.58486801,-63.26,55.57,0.370034518,0.002595964,0.36256085,0.374932911,9.20E-06,7.74E-05,2.00E-07,0.000799117,0.00027625,0.002027904,1.30E-07,0.015401631,-0.52334013,0.001378824,-0.524768648,-0.520601857,33.14563636,0.010576756,33.13,33.16,0.108597285,3.61E-05,0,1,0
0,0.038328629,0.000423898,0.035778783,0.041971265,-0.038328611,0.000423898,-0.041971245,-0.035778766,-2.64E-05,2.92E-07,-2.89E-05,-2.46E-05,-2.64E-05,2.92E-07,-2.89E-05,-2.46E-05,0.118162804,19.83649319,-98.39,145.22,0.369811043,0.00175673,0.367332949,0.375950691,0.000584236,0.000801714,6.25E-07,0.002777947,0.000270412,0.00124134,1.19E-07,0.008185818,-0.524373814,0.000896698,-0.526644463,-0.523390384,33.22351351,0.043509317,33.13,33.29,0.108535896,0.001188312,0,1,0
0,0.037882639,0.000431739,0.03715489,0.038530997,-0.037882621,0.000431739,-0.038530979,-0.037154873,-2.61E-05,2.97E-07,-2.65E-05,-2.56E-05,-2.61E-05,2.97E-07,-2.65E-05,-2.56E-05,0.051940045,9.405372768,-21.42,14.33,0.365783933,0.001818225,0.361926609,0.369671417,0.009778576,0.01119825,1.01E-05,0.03113586,0.007521353,0.013746979,4.55E-08,0.057072488,-0.535575785,0.012699054,-0.558531577,-0.523053874,33.24072727,0.012842337,33.23,33.27,0.113122172,-4.16E-05,0,1,0
0,0.027094053,0.009005731,0.002752214,0.06054871,-0.027094041,0.009005727,-0.060548681,-0.002752213,-1.86E-05,6.20E-06,-4.17E-05,-1.89E-06,-1.86E-05,6.20E-06,-4.17E-05,-1.89E-06,0.251843891,19.95132674,-78.47,103.58,0.343673503,0.004612923,0.337896731,0.361334235,0.001063268,0.001881916,5.95E-06,0.008404407,0.001278419,0.005548782,1.06E-07,0.03892953,-0.540511223,0.001104543,-0.542100332,-0.538472056,32.706,0.022851298,32.66,32.73,0.108597285,-0.000606632,0,0,1
0,0.033071713,0.010324854,0.008944696,0.063300924,-0.033071697,0.01032485,-0.063300894,-0.008944692,-2.28E-05,7.10E-06,-4.36E-05,-6.15E-06,-2.28E-05,7.10E-06,-4.36E-05,-6.15E-06,-0.107885811,16.92699679,-78.45,89.16,0.388908436,0.036468257,0.319903321,0.446638629,0.009168299,0.006548356,0.00089656,0.025019623,0.00720635,0.023227296,8.51E-08,0.161451556,-0.521391051,0.017995981,-0.544301278,-0.500568208,32.63954955,0.018569926,32.61,32.68,0.13566987,-0.000447525,0,0,1
0,0.029170667,0.009353944,0.014449124,0.055732335,-0.029170654,0.00935394,-0.055732309,-0.014449117,-2.01E-05,6.44E-06,-3.83E-05,-9.94E-06,-2.01E-05,6.44E-06,-3.83E-05,-9.94E-06,-0.164558824,12.77613117,-45.11,53.53,0.524589194,0.08554645,0.421207337,0.862041805,0.014327506,0.023021451,0.000307031,0.129909688,0.019372536,0.076445128,8.09E-08,0.508285146,-0.443765026,0.033704596,-0.500689446,-0.360352439,32.57945455,0.021184744,32.53,32.61,0.140271493,-0.000503843,0,0,1
0,0.024873329,0.008532472,0.008256642,0.059172603,-0.024873318,0.008532468,-0.059172575,-0.008256638,-1.71E-05,5.87E-06,-4.07E-05,-5.68E-06,-1.71E-05,5.87E-06,-4.07E-05,-5.68E-06,0.115539853,19.50205549,-87.5,71.32,1.157326232,0.435699701,0.744935141,2.212640168,0.135312402,0.106639623,0.012875192,0.384378649,0.124643924,0.311964788,3.60E-08,2.122769392,-0.180163039,0.168586743,-0.357325486,0.286871285,32.53504505,0.018690166,32.5,32.57,0.162803844,0.000283959,0,0,1
0,0.02539727,0.006151401,0.003440268,0.050227907,-0.025397258,0.006151398,-0.050227884,-0.003440266,-1.75E-05,4.23E-06,-3.46E-05,-2.37E-06,-1.75E-05,4.23E-06,-3.46E-05,-2.37E-06,0.230180995,16.29420138,-64.96,55.91,2.81399732,0.342243544,2.244731365,3.632934079,0.408989554,0.200452531,0.098496755,0.915049438,0.324593903,0.649807731,4.40E-08,3.876950743,0.552763173,0.072822262,0.303616487,0.681484696,32.50945946,0.019992694,32.47,32.55,0.131221719,-0.000436995,0,0,1
0,0.020577003,0.00521841,0.001376107,0.054356228,-0.020552087,0.005315654,-0.054356203,0.009632745,-1.41E-05,3.66E-06,-3.74E-05,6.63E-06,-1.41E-05,3.66E-06,-3.74E-05,6.63E-06,-0.23031091,22.76038437,-166.38,177.78,3.591455985,0.342845803,3.028844881,4.352465944,0.420854655,0.299469856,0.014202949,1.097673392,0.308718066,0.731993571,6.06E-08,4.152810284,1.013186635,0.136624036,0.689299919,1.144788661,32.47590909,0.013571056,32.45,32.5,0.13566987,9.00E-05,0,0,1
0,0.030336622,0.00920968,0.010320803,0.055732335,-0.030336608,0.009209676,-0.055732309,-0.010320798,-2.09E-05,6.34E-06,-3.83E-05,-7.10E-06,-2.09E-05,6.34E-06,-3.83E-05,-7.10E-06,0.101464932,23.27083287,-112.45,123.64,3.86754704,0.422449806,3.401755636,5.064170235,0.405951555,0.214962188,0.127884807,1.076101669,0.322108035,0.76683814,6.12E-08,4.356879212,1.196049919,0.072273695,1.066401219,1.281950809,32.44342342,0.026491389,32.41,32.5,0.190045249,-0.000717269,0,0,1
0,0.02912241,0.009803586,0.008256642,0.079126155,-0.029122396,0.009803582,-0.079126118,-0.008256638,-2.00E-05,6.75E-06,-5.44E-05,-5.68E-06,-2.00E-05,6.75E-06,-5.44E-05,-5.68E-06,-0.1414819,16.81283051,-65.03,88.62,4.079979318,0.207261737,3.8488045,4.595493135,0.242769946,0.155316485,0.041253723,0.535013798,0.169465768,0.402164363,4.78E-08,2.711626999,1.488690132,0.093687944,1.284261121,1.584567842,32.41254545,0.014297893,32.39,32.43,0.095022624,1.80E-05,0,0,1
0,0.026017753,0.007699944,0.000688054,0.05848455,-0.026016186,0.007705192,-0.058484522,0.000688053,-1.79E-05,5.30E-06,-4.02E-05,4.73E-07,-1.79E-05,5.30E-06,-4.02E-05,4.73E-07,0.03192199,16.69548388,-81.61,48.5,4.090967935,0.175508261,3.800597799,4.555524276,0.25610959,0.118756409,0.060335349,0.553979677,0.18878036,0.439149398,7.64E-08,2.510594705,1.482002483,0.031740666,1.443344728,1.537411318,32.36288288,0.01782737,32.33,32.39,0.108535896,-0.000198578,0,0,1
0,0.030777163,0.008552305,0.015825231,0.050915961,-0.030777149,0.008552301,-0.050915937,-0.015825224,-2.12E-05,5.88E-06,-3.50E-05,-1.09E-05,-2.12E-05,5.88E-06,-3.50E-05,-1.09E-05,0.055124434,17.82046431,-88.25,66.5,4.665859769,0.431736063,3.783181383,5.515129316,0.626124607,0.307762698,0.098578174,1.242905136,0.483387225,0.815537103,3.16E-08,4.322647714,1.461201005,0.16893087,1.283121922,1.838631504,32.34154545,0.016959115,32.31,32.37,0.063348416,-0.000251786,0,0,1
0,0.024505291,0.006445931,0.014449124,0.05848455,-0.024505279,0.006445927,-0.058484522,-0.014449117,-1.69E-05,4.44E-06,-4.02E-05,-9.94E-06,-1.69E-05,4.44E-06,-4.02E-05,-9.94E-06,-0.032385529,11.63871309,-36.45,59.98,4.90776342,0.2174611,4.554770319,5.546436815,0.268044981,0.145880574,0.077794689,0.673064178,0.199988125,0.506936609,4.72E-08,3.811885007,1.966238344,0.046027345,1.845256425,2.016199009,32.28387387,0.013896086,32.27,32.33,0.131147541,-0.000106002,0,0,1
0,0.020943602,0.002187807,0.01376107,0.039219051,-0.020943592,0.002187806,-0.039219032,-0.013761064,-1.44E-05,1.51E-06,-2.70E-05,-9.47E-06,-1.44E-05,1.51E-06,-2.70E-05,-9.47E-06,0.063093891,9.439261896,-33.72,114.97,4.582055069,0.151852549,4.369533767,5.070249494,0.121097775,0.099987812,0.011822402,0.440774315,0.093377663,0.259566781,9.08E-08,1.605215649,1.915231463,0.036464478,1.874283278,1.990629496,32.28054545,0.011348717,32.27,32.31,0.180995475,-2.96E-05,0,0,1
0,0.022214411,0.00416179,0.015137178,0.052980121,-0.0222144,0.004161788,-0.052980096,-0.01513717,-1.53E-05,2.86E-06,-3.65E-05,-1.04E-05,-1.53E-05,2.86E-06,-3.65E-05,-1.04E-05,-0.05869983,7.716726337,-60.68,28.38,4.142268949,0.169245173,3.846577016,4.429801883,0.032526327,0.018610227,0.003959209,0.075232963,0.020400507,0.06219075,5.72E-08,0.456297982,1.736604198,0.093533547,1.589096459,1.873859404,32.22117117,0.030276168,32.16,32.27,0.140192199,-0.000775886,0,0,1
0,0.021517239,0.001880229,0.015825231,0.036466837,-0.021517229,0.001880228,-0.03646682,-0.015825224,-1.48E-05,1.29E-06,-2.51E-05,-1.09E-05,-1.48E-05,1.29E-06,-2.51E-05,-1.09E-05,-0.030848416,7.669626869,-35.2,32.68,3.599654245,0.13764001,3.393375884,3.846178364,0.019359106,0.028254678,0.000724603,0.112084766,0.017073359,0.07399082,5.72E-08,0.687153165,1.419908659,0.096515166,1.287286721,1.586829879,32.15636364,0.010764189,32.13,32.21,0.058823529,-0.000131912,0,0,1
0,0.021505564,0.00064225,0.019265499,0.024769927,-0.021505554,0.000642249,-0.024769915,-0.01926549,-1.48E-05,4.42E-07,-1.70E-05,-1.33E-05,-1.48E-05,4.42E-07,-1.70E-05,-1.33E-05,-0.098738688,6.405456344,-48.25,26.16,3.143274518,0.127354411,2.9439056,3.403072447,0.00626017,0.006432193,0.000238834,0.033847738,0.002615138,0.010399981,9.87E-08,0.066295069,1.155620712,0.073821314,1.040870282,1.285410156,32.13126126,0.014021677,32.11,32.15,0.081447964,-0.000308178,0,0,1
0,0.020904685,0.00053914,0.018577445,0.02339382,-0.020904675,0.00053914,-0.023393809,-0.018577436,-1.44E-05,3.71E-07,-1.61E-05,-1.28E-05,-1.44E-05,3.71E-07,-1.61E-05,-1.28E-05,0.232916902,9.002530978,-42.72,29.92,2.777836805,0.092024424,2.628431312,2.946455175,0.003459189,0.00267084,0.000124151,0.010696429,0.002498094,0.009746258,1.06E-07,0.065195231,0.93622724,0.055318094,0.848551018,1.039028194,32.08963636,0.015487665,32.07,32.11,0.113058225,-0.000209905,0,0,1
0,0.02124015,0.004011342,0.008256642,0.067429245,-0.02124014,0.00401134,-0.067429213,-0.008256638,-1.46E-05,2.76E-06,-4.64E-05,-5.68E-06,-1.46E-05,2.76E-06,-4.64E-05,-5.68E-06,-0.40658371,12.44470937,-39.37,72.95,2.528511534,0.065453892,2.427500321,2.644498253,0.013928122,0.016381868,3.16E-05,0.064686156,0.01363836,0.045864615,8.40E-08,0.343875317,0.774277217,0.03978862,0.71153701,0.847016311,32.05144144,0.018832923,32,32.09,0.085972851,-0.000356967,0,0,1
0,0.020428581,0.000657915,0.018577445,0.022705766,-0.020428572,0.000657915,-0.022705756,-0.018577436,-1.41E-05,4.53E-07,-1.56E-05,-1.28E-05,-1.41E-05,4.53E-07,-1.56E-05,-1.28E-05,0.246399096,4.987281629,-15.93,20.35,2.3399704,0.048954352,2.274193962,2.470324836,0.008213424,0.009245024,0.000291986,0.046517314,0.00438514,0.017109711,1.05E-07,0.141644556,0.665671052,0.027181847,0.618024645,0.710710527,31.99854545,0.014259693,31.97,32.05,0.072357264,-0.000267881,0,0,1
0,0.020654059,0.000830434,0.018577445,0.024081873,-0.020654049,0.000830434,-0.024081862,-0.018577436,-1.42E-05,5.71E-07,-1.66E-05,-1.28E-05,-1.42E-05,5.71E-07,-1.66E-05,-1.28E-05,0.03331448,4.399060894,-18.53,13.77,2.163493015,0.053856939,2.078043555,2.275249099,0.002971882,0.003198386,7.83E-05,0.016310883,0.001448858,0.006495198,1.09E-07,0.043496079,0.563570075,0.031092236,0.514910352,0.617127484,31.97774775,0.016367661,31.95,32,0.122171946,-0.000293787,0,0,1
0,0.020008036,0.000454932,0.018577445,0.022705766,-0.020008027,0.000454932,-0.022705756,-0.018577436,-1.38E-05,3.13E-07,-1.56E-05,-1.28E-05,-1.38E-05,3.13E-07,-1.56E-05,-1.28E-05,-0.038144796,6.472806575,-25.16,23.94,1.999324551,0.047540643,1.931069067,2.081459714,0.002198487,0.001619257,2.86E-05,0.005960797,0.001796785,0.005346617,1.36E-07,0.022280523,0.464356009,0.028911421,0.421810293,0.514153594,31.95945455,0.015657491,31.93,31.99,0.049773756,-0.000143543,0,0,1
0,0.020421335,0.002989175,0.008944696,0.047475693,-0.020421326,0.002989174,-0.047475671,-0.008944692,-1.41E-05,2.06E-06,-3.27E-05,-6.15E-06,-1.41E-05,2.06E-06,-3.27E-05,-6.15E-06,0.027467496,11.35798598,-50.09,83.78,1.855181156,0.04664736,1.769706613,1.93303721,0.002689121,0.00222795,0.000133016,0.007312824,0.001809579,0.008159861,9.14E-08,0.056870251,0.376485022,0.028311205,0.329427204,0.421305183,31.94513514,0.01265373,31.93,31.97,0.099491238,-2.21E-05,0,0,1
0,0.019803332,0.001028406,0.015137178,0.024769927,-0.019803323,0.001028405,-0.024769915,-0.01513717,-1.36E-05,7.08E-07,-1.70E-05,-1.04E-05,-1.36E-05,7.08E-07,-1.70E-05,-1.04E-05,-0.138580317,8.295979868,-45.04,61.83,1.707685942,0.037722831,1.647233914,1.771993569,0.001737177,0.001507281,1.44E-05,0.004790841,0.001355403,0.005615248,1.57E-07,0.043658114,0.287545883,0.023083749,0.250634002,0.328661831,31.92327273,0.015321351,31.89,31.95,0.085972851,-0.000171404,0,0,1
0,0.021802356,0.004871772,0.015825231,0.042659319,-0.021802346,0.00487177,-0.042659298,-0.015825224,-1.50E-05,3.35E-06,-2.94E-05,-1.09E-05,-1.50E-05,3.35E-06,-2.94E-05,-1.09E-05,0.036659129,10.94014672,-66.12,29.79,1.584060862,0.039772191,1.514041143,1.645141376,0.003399205,0.004044526,6.01E-05,0.013957971,0.002590752,0.011078003,8.91E-08,0.078812957,0.21097874,0.023570338,0.171574725,0.250009313,31.90351351,0.020118955,31.85,31.93,0.085924251,-0.000503686,0,0,1
0,0.016064182,0.015716199,0,0.051604014,-0.015165969,0.016584624,-0.05160399,0.007568585,-1.04E-05,1.14E-05,-3.55E-05,5.21E-06,-1.04E-05,1.14E-05,-3.55E-05,5.21E-06,-0.266510181,32.05829457,-228.02,115.28,0.419879041,0.148258927,0.3431962,1.274293902,0.397623515,0.275933915,0.02879417,0.897291413,0.304835953,0.754073001,1.53E-08,6.932148691,-0.891118216,0.249608736,-1.262967265,-0.559842038,30.71218182,0.020421994,30.69,30.75,0.095022624,0.000458039,1,0,0
0,0.03440579,0.000709506,0.033026569,0.036466837,-0.034405773,0.000709505,-0.03646682,-0.033026554,-2.37E-05,4.88E-07,-2.51E-05,-2.27E-05,-2.37E-05,4.88E-07,-2.51E-05,-2.27E-05,0.124855851,11.87266814,-35.46,38.18,0.38869458,0.002129762,0.385379358,0.393833629,0.012680321,0.013806834,4.73E-05,0.073427322,0.005451244,0.00956532,5.50E-08,0.048525982,-0.524602974,0.013884117,-0.586032277,-0.511103072,30.78747748,0.031664584,30.71,30.85,0.117580554,0.000856792,1,0,0
0,0.031353136,0.005661973,0,0.050227907,-0.031275287,0.006077214,-0.050227884,0.009632745,-2.15E-05,4.18E-06,-3.46E-05,6.63E-06,-2.15E-05,4.18E-06,-3.46E-05,6.63E-06,0.285746606,27.41830338,-136.42,140.49,0.389913455,0.01147842,0.377211101,0.417716045,0.00300909,0.003473846,1.03E-05,0.013355104,0.002579349,0.007882215,8.61E-08,0.049794866,-0.51466602,0.003531215,-0.517670575,-0.505205459,30.84109091,0.011309325,30.81,30.85,0.104072398,-2.48E-05,1,0,0
0,0.03214726,0.000394966,0.030274355,0.034402676,-0.032147245,0.000394966,-0.03440266,-0.030274341,-2.21E-05,2.72E-07,-2.37E-05,-2.08E-05,-2.21E-05,2.72E-07,-2.37E-05,-2.08E-05,-0.293985302,10.00784559,-52.46,27.71,0.399503318,0.00533184,0.390493631,0.413081835,0.000436176,0.001027722,2.58E-07,0.005162173,4.07E-07,3.52E-07,1.14E-07,1.76E-06,-0.506097543,0.002650777,-0.510171147,-0.502201438,30.8463964,0.017847845,30.81,30.89,0.104013567,-8.07E-06,1,0,0
0,0.021440962,0.013997023,0,0.046099586,-0.01910126,0.01705206,-0.046099564,0.006192479,-1.31E-05,1.17E-05,-3.17E-05,4.26E-06,-1.31E-05,1.17E-05,-3.17E-05,4.26E-06,-0.156996606,22.04459747,-102.67,84.61,0.390068386,0.012399929,0.373868866,0.46140722,0.002302812,0.004362329,2.41E-07,0.01704676,0.001876791,0.013936238,4.02E-08,0.140457846,-0.513644097,0.004455827,-0.523128046,-0.50991203,30.85486486,0.0114581,30.83,30.87,0.090497738,-3.97E-05,1,0,0
0,0.011405032,0.009135566,0.002752214,0.027522141,-0.005243681,0.013639535,-0.027522128,0.014449117,-3.61E-06,9.38E-06,-1.89E-05,9.94E-06,-3.61E-06,9.38E-06,-1.89E-05,9.94E-06,0.064041832,19.12406538,-83.69,70.32,0.385847716,0.025343359,0.361269773,0.431787484,0.009602521,0.013480879,1.04E-06,0.035594834,0.009091982,0.034132292,1.59E-07,0.314046863,-0.523705496,0.0023797,-0.527060267,-0.518431654,30.84418182,0.012164166,30.83,30.87,0.104013567,-8.60E-05,1,0,0
0,0.004745546,0.006253738,0,0.032338516,-7.86E-05,0.007850045,-0.0323385,0.010320798,-5.41E-08,5.40E-06,-2.23E-05,7.10E-06,-5.41E-08,5.40E-06,-2.23E-05,7.10E-06,0.144570136,42.07760219,-217.01,325.49,0.403087831,0.013582211,0.360216707,0.423263475,0.011090389,0.010043595,4.47E-05,0.027140191,0.00674773,0.022655511,3.79E-08,0.194202172,-0.514376149,0.00934319,-0.52628735,-0.501286185,30.87396396,0.022432252,30.83,30.91,0.099547511,0.000336609,1,0,0
0,0.003974988,0.001554309,0,0.01169691,0.001160506,0.004107263,-0.008944692,0.011696904,7.98E-07,2.83E-06,-6.15E-06,8.05E-06,7.98E-07,2.83E-06,-6.15E-06,8.05E-06,-0.059117647,17.17945447,-65.73,120.63,0.402228954,0.003690454,0.395139919,0.40978615,0.000705314,0.000877025,5.21E-06,0.003153084,0.000530595,0.003209283,1.15E-07,0.030821069,-0.504908989,0.002349012,-0.508314492,-0.501359275,30.886,0.011693044,30.87,30.91,0.117647059,-9.16E-05,1,0,0
0,0.034010058,0.010052668,0,0.061236764,-0.033994493,0.01010512,-0.061236735,0.003440266,-2.34E-05,6.95E-06,-4.21E-05,2.37E-06,-2.34E-05,6.95E-06,-4.21E-05,2.37E-06,0.066625212,24.92201036,-158.2,128.93,0.386578207,0.0049096,0.378756193,0.398935202,0.000172312,0.000247182,6.06E-07,0.000893336,0.000132296,0.000987686,1.28E-07,0.008583238,-0.513694183,0.002520299,-0.517093712,-0.508435796,30.91234234,0.019680097,30.87,30.95,0.067834935,0.000401018,1,0,0
0,0.037442098,0.000348644,0.036466837,0.039219051,-0.03744208,0.000348644,-0.039219032,-0.03646682,-2.58E-05,2.40E-07,-2.70E-05,-2.51E-05,-2.58E-05,2.40E-07,-2.70E-05,-2.51E-05,-0.020978507,7.230190561,-19.51,13.9,0.371628658,0.004898093,0.363644961,0.381056691,4.12E-07,7.43E-08,2.70E-07,6.40E-07,3.02E-07,9.14E-08,1.77E-07,6.28E-07,-0.522540222,0.00293231,-0.526103186,-0.517174911,30.94836364,0.018117158,30.91,30.99,0.113122172,0.000368145,1,0,0
0,0.031406841,0.00149478,0.028210195,0.042659319,-0.031406826,0.00149478,-0.042659298,-0.028210181,-2.16E-05,1.03E-06,-2.94E-05,-1.94E-05,-2.16E-05,1.03E-06,-2.94E-05,-1.94E-05,-0.022170718,20.82362102,-135.16,122.76,0.371568741,0.002330541,0.364740762,0.375489257,0.000251612,0.000507827,3.34E-07,0.001967205,0.000193549,0.002023125,1.57E-07,0.02141226,-0.522979879,0.001372832,-0.525620352,-0.52096491,30.96153153,0.013832863,30.93,30.99,0.13566987,-6.16E-05,1,0,0
0,0.029955235,0.00045457,0.027522141,0.032338516,-0.029955221,0.00045457,-0.0323385,-0.027522128,-2.06E-05,3.13E-07,-2.23E-05,-1.89E-05,-2.06E-05,3.13E-07,-2.23E-05,-1.89E-05,0.095079186,8.061570624,-24.1,25.24,0.365384012,0.001613124,0.362357931,0.368295655,3.99E-07,3.46E-08,3.50E-07,4.68E-07,3.03E-07,5.53E-08,2.12E-07,4.60E-07,-0.52641748,0.000977237,-0.52751111,-0.524641662,30.96490909,0.01277394,30.93,30.99,0.113122172,6.71E-05,1,0,0
0,0.032494008,0.004884739,0.02545798,0.049539854,-0.032493993,0.004884737,-0.04953983,-0.025457968,-2.24E-05,3.36E-06,-3.41E-05,-1.75E-05,-2.24E-05,3.36E-06,-3.41E-05,-1.75E-05,-0.173510458,13.92884038,-82.22,104.31,0.3613704,0.002307793,0.354537704,0.364962926,4.51E-07,1.32E-07,2.93E-07,7.03E-07,3.71E-07,1.56E-07,1.99E-07,8.31E-07,-0.528850501,0.001318591,-0.531700472,-0.527456354,30.97216216,0.009809483,30.95,30.99,0.104013567,-4.53E-05,1,0,0