,net_acc_mean,net_acc_std,net_acc_min,net_acc_max,ACC_x_mean,ACC_x_std,ACC_x_min,ACC_x_max,ACC_y_mean,ACC_y_std,ACC_y_min,ACC_y_max,ACC_z_mean,ACC_z_std,ACC_z_min,ACC_z_max,BVP_mean,BVP_std,BVP_min,BVP_max,EDA_mean,EDA_std,EDA_min,EDA_max,EDA_phasic_mean,EDA_phasic_std,EDA_phasic_min,EDA_phasic_max,EDA_smna_mean,EDA_smna_std,EDA_smna_min,EDA_smna_max,EDA_tonic_mean,EDA_tonic_std,EDA_tonic_min,EDA_tonic_max,TEMP_mean,TEMP_std,TEMP_min,TEMP_max,BVP_peak_freq,TEMP_slope,0,1,2
0,0.030395776,0.008623971,0.001376107,0.088070851,-0.03016226,0.009408148,-0.088070809,0.011008851,-2.08E-05,6.47E-06,-6.06E-05,7.57E-06,-2.08E-05,6.47E-06,-6.06E-05,7.57E-06,0.414663652,80.17996972,-357.28,327.54,0.208902773,0.006453413,0.19790038,0.224814225,0.003572487,0.005310829,4.33E-05,0.02184541,0.001815904,0.009187426,2.37E-08,0.079305211,-0.389760132,0.006431518,-0.402545867,-0.382402725,32.71218182,0.062542812,32.61,32.81,0.167326173,0.0018556,0,1,0
0,0.036083893,0.010239331,0.008944696,0.051604014,-0.036083876,0.010239326,-0.05160399,-0.008944692,-2.48E-05,7.05E-06,-3.55E-05,-6.15E-06,-2.48E-05,7.05E-06,-3.55E-05,-6.15E-06,-1.628105204,68.79122512,-467.49,160.9,0.194622546,0.003545643,0.188505872,0.20598724,0.002100223,0.002144477,3.84E-06,0.009085317,0.000948272,0.005074821,1.97E-08,0.043819184,-0.408809473,0.002470111,-0.414124217,-0.40279051,32.82468468,0.011135514,32.81,32.84,0.135746606,0.000143647,0,1,0
0,0.03246305,0.009721434,0.017201338,0.044723479,-0.032463035,0.00972143,-0.044723458,-0.01720133,-2.23E-05,6.69E-06,-3.08E-05,-1.18E-05,-2.23E-05,6.69E-06,-3.08E-05,-1.18E-05,1.190378959,48.23118579,-156.03,219.12,0.183747456,0.003261811,0.177470143,0.190400694,0.000528491,0.000578696,6.82E-07,0.001966638,0.0004082,0.002064037,1.77E-08,0.017322594,-0.42317585,0.004007207,-0.426974191,-0.414319869,32.88336364,0.02154392,32.84,32.93,0.122171946,0.000581701,0,1,0
0,0.023030745,0.001648568,0.019953552,0.028210195,-0.023030734,0.001648567,-0.028210181,-0.019953543,-1.58E-05,1.13E-06,-1.94E-05,-1.37E-05,-1.58E-05,1.13E-06,-1.94E-05,-1.37E-05,-1.219446015,40.95337953,-106.65,119.13,0.178295577,0.00169518,0.175431685,0.181907176,5.80E-05,0.000160523,6.68E-08,0.000636225,6.26E-05,0.000653989,4.27E-08,0.006921647,-0.43067398,0.002212109,-0.434792242,-0.42699164,32.89666667,0.012105641,32.87,32.91,0.131147541,-0.000147596,0,1,0
0,0.022406883,0.001532465,0.017201338,0.028210195,-0.022406873,0.001532464,-0.028210181,-0.01720133,-1.54E-05,1.05E-06,-1.94E-05,-1.18E-05,-1.54E-05,1.05E-06,-1.94E-05,-1.18E-05,-0.186708145,39.66578167,-114.8,103.91,0.170672385,0.002391247,0.166179008,0.177383325,0.000338735,0.000435743,1.65E-06,0.001618154,0.000241146,0.001608815,2.24E-08,0.01279748,-0.44188144,0.003223185,-0.445973782,-0.434918871,32.89727273,0.01445426,32.87,32.93,0.135746606,0.000197642,0,1,0
0,0.022213855,0.001467297,0.017889392,0.026834087,-0.022213844,0.001467296,-0.026834075,-0.017889383,-1.53E-05,1.01E-06,-1.85E-05,-1.23E-05,-1.53E-05,1.01E-06,-1.85E-05,-1.23E-05,0.011876767,37.58428258,-106.34,71.99,0.163031218,0.002344349,0.159160161,0.168178428,8.24E-07,1.66E-06,7.54E-08,9.08E-06,1.07E-07,8.75E-08,3.98E-08,6.05E-07,-0.452637499,0.003213831,-0.457448144,-0.446109383,32.89792793,0.011159541,32.89,32.93,0.122102883,0.000159705,0,1,0
0,0.020929592,0.001172977,0.015825231,0.028210195,-0.020929582,0.001172977,-0.028210181,-0.015825224,-1.44E-05,8.07E-07,-1.94E-05,-1.09E-05,-1.44E-05,8.07E-07,-1.94E-05,-1.09E-05,0.284196833,39.76155565,-131.64,86.64,0.15739508,0.001649901,0.152033265,0.160917914,0.000131478,0.000264791,6.95E-08,0.001020698,0.000101425,0.000997904,2.48E-08,0.010500579,-0.460939127,0.001906163,-0.463120677,-0.457506321,32.89090909,0.011563694,32.87,32.91,0.126696833,-6.52E-05,0,1,0
0,0.022193419,0.001475581,0.018577445,0.02545798,-0.022193409,0.00147558,-0.025457968,-0.018577436,-1.53E-05,1.02E-06,-1.75E-05,-1.28E-05,-1.53E-05,1.02E-06,-1.75E-05,-1.28E-05,0.153329565,36.61619407,-113.91,69.53,0.154045072,0.001916943,0.147414323,0.157157739,1.08E-06,1.36E-06,8.07E-08,4.94E-06,5.42E-07,3.70E-06,2.90E-08,3.85E-05,-0.465659423,0.00217192,-0.469487493,-0.462065699,32.89126126,0.011787695,32.87,32.91,0.122102883,-8.07E-05,0,1,0
0,0.022934599,0.000843396,0.020641606,0.02545798,-0.022934588,0.000843395,-0.025457968,-0.020641596,-1.58E-05,5.80E-07,-1.75E-05,-1.42E-05,-1.58E-05,5.80E-07,-1.75E-05,-1.42E-05,-0.229451357,35.56886193,-118.22,61.85,0.149129075,0.001567211,0.144442306,0.152531908,1.13E-05,2.24E-05,8.47E-08,8.66E-05,8.68E-06,8.91E-05,3.91E-08,0.000938514,-0.472866871,0.001761932,-0.47551404,-0.469579864,32.89581818,0.013030162,32.87,32.91,0.122171946,4.33E-05,0,1,0
0,0.02312607,0.000494246,0.022017713,0.026146034,-0.02312606,0.000494246,-0.026146022,-0.022017702,-1.59E-05,3.40E-07,-1.80E-05,-1.51E-05,-1.59E-05,3.40E-07,-1.80E-05,-1.51E-05,0.167850679,33.02006007,-80.09,64.38,0.145543403,0.001666519,0.141137942,0.149012266,7.64E-05,0.000162397,9.15E-08,0.000624254,6.22E-05,0.000642152,3.32E-08,0.006796614,-0.478151504,0.002151818,-0.481578417,-0.475523841,32.90009009,0.009999594,32.89,32.91,0.122171946,-3.16E-05,0,1,0
0,0.02323426,0.000510935,0.022017713,0.024769927,-0.023234249,0.000510935,-0.024769915,-0.022017702,-1.60E-05,3.52E-07,-1.70E-05,-1.51E-05,-1.60E-05,3.52E-07,-1.70E-05,-1.51E-05,-0.314313171,32.25028935,-88,49.87,0.141673502,0.001412849,0.138576533,0.145224388,0.000123985,0.00023883,1.60E-07,0.000929408,9.22E-05,0.00091699,2.71E-08,0.009654253,-0.483637166,0.001646842,-0.485619516,-0.481540267,32.89745455,0.012017893,32.87,32.93,0.122102883,6.48E-05,0,1,0
0,0.022113449,0.000552446,0.020641606,0.024081873,-0.022113438,0.000552446,-0.024081862,-0.020641596,-1.52E-05,3.80E-07,-1.66E-05,-1.42E-05,-1.52E-05,3.80E-07,-1.66E-05,-1.42E-05,0.216832579,31.05046552,-83.1,52.31,0.140123652,0.00112072,0.136901355,0.143090786,5.01E-05,6.74E-05,6.05E-07,0.000257028,3.87E-05,0.000297999,3.75E-08,0.00279533,-0.485988026,0.000577138,-0.487400483,-0.484909276,32.90747748,0.010438017,32.87,32.93,0.122171946,0.000110214,0,1,0
0,0.022470973,0.000373615,0.021329659,0.02339382,-0.022470962,0.000373615,-0.023393809,-0.021329649,-1.55E-05,2.57E-07,-1.61E-05,-1.47E-05,-1.55E-05,2.57E-07,-1.61E-05,-1.47E-05,-0.230418315,34.64956229,-92.78,53.47,0.136820346,0.001224482,0.133765597,0.139135552,3.01E-05,5.94E-05,1.10E-07,0.000231071,2.27E-05,0.000237115,4.27E-08,0.002509615,-0.490646729,0.001230164,-0.491881758,-0.487480571,32.91594595,0.016016792,32.87,32.95,0.122102883,4.33E-05,0,1,0
0,0.021079812,0.003337906,0.007568589,0.029586302,-0.021079802,0.003337904,-0.029586288,-0.007568585,-1.45E-05,2.30E-06,-2.04E-05,-5.21E-06,-1.45E-05,2.30E-06,-2.04E-05,-5.21E-06,0.192969457,39.75878226,-148.83,129.85,0.133509775,0.003449025,0.125474337,0.137367239,0.000878251,0.001317377,1.14E-07,0.004677141,0.00068133,0.00314505,2.94E-08,0.021751393,-0.496309497,0.004596793,-0.505968643,-0.491938012,32.92563636,0.00826023,32.91,32.93,0.131221719,4.90E-05,0,1,0
0,0.016761575,0.002917869,0.002064161,0.02545798,-0.016761567,0.002917868,-0.025457968,-0.00206416,-1.15E-05,2.01E-06,-1.75E-05,-1.42E-06,-1.15E-05,2.01E-06,-1.75E-05,-1.42E-06,-0.128055399,48.95172087,-255.01,133.66,0.127809527,0.001487772,0.123060994,0.131852046,0.000572165,0.00099954,1.60E-07,0.003602904,0.000434428,0.003202199,2.03E-08,0.032042517,-0.504339324,0.001298441,-0.506427021,-0.502628691,32.93432432,0.00982932,32.91,32.95,0.140192199,7.65E-05,0,1,0
0,0.01652029,0.000961123,0.01376107,0.022017713,-0.016520282,0.000961123,-0.022017702,-0.013761064,-1.14E-05,6.61E-07,-1.51E-05,-9.47E-06,-1.14E-05,6.61E-07,-1.51E-05,-9.47E-06,0.277692308,34.07969819,-89.79,78.19,0.127802709,0.001086029,0.12465033,0.130152861,0.00012369,0.000248549,1.14E-07,0.000959431,9.51E-05,0.000991636,3.44E-08,0.010448128,-0.503822625,0.000746021,-0.504973322,-0.502849441,32.94963636,0.015487665,32.91,32.97,0.126696833,0.000120461,0,1,0
0,0.015121611,0.000848879,0.012384963,0.018577445,-0.015121604,0.000848878,-0.018577436,-0.012384958,-1.04E-05,5.84E-07,-1.28E-05,-8.52E-06,-1.04E-05,5.84E-07,-1.28E-05,-8.52E-06,-0.591713801,35.97259536,-116.21,56.93,0.126576071,0.001257018,0.123093964,0.129823602,0.000216465,0.000345155,1.13E-07,0.001079379,0.000207427,0.001505623,4.14E-08,0.011760337,-0.505765592,0.000478247,-0.507127867,-0.504882339,32.96837838,0.007171081,32.95,32.99,0.117647059,2.32E-05,0,1,0
0,0.014584402,0.000946805,0.012384963,0.017201338,-0.014584395,0.000946804,-0.01720133,-0.012384958,-1.00E-05,6.51E-07,-1.18E-05,-8.52E-06,-1.00E-05,6.51E-07,-1.18E-05,-8.52E-06,0.454906727,37.10354186,-91.3,111.36,0.125168759,0.001168608,0.121245901,0.127493486,5.38E-05,0.000127864,8.86E-08,0.000660614,9.02E-08,5.13E-08,2.94E-08,3.14E-07,-0.507609961,0.000288752,-0.50803515,-0.507177474,32.97981818,0.014458833,32.95,33,0.113058225,0.000258233,0,1,0
0,0.013887162,0.000873984,0.011008856,0.015825231,-0.013887155,0.000873983,-0.015825224,-0.011008851,-9.56E-06,6.01E-07,-1.09E-05,-7.57E-06,-9.56E-06,6.01E-07,-1.09E-05,-7.57E-06,0.168970588,37.34936201,-91.72,74.28,0.125347953,0.001113347,0.121205295,0.127033288,3.32E-05,6.88E-05,7.94E-08,0.000265329,2.61E-05,0.000272028,3.17E-08,0.00287916,-0.507332058,0.000465802,-0.508456308,-0.506881843,32.98423423,0.011194396,32.97,33,0.122171946,-1.97E-05,0,1,0
0,0.01389261,0.001007847,0.012384963,0.019953552,-0.013892604,0.001007846,-0.019953543,-0.012384958,-9.56E-06,6.93E-07,-1.37E-05,-8.52E-06,-9.56E-06,6.93E-07,-1.37E-05,-8.52E-06,-0.751780667,35.70291823,-108.46,55.55,0.125052041,0.001149867,0.120790621,0.127627034,7.33E-05,0.000146052,1.41E-07,0.000564502,5.58E-05,0.000579976,3.96E-08,0.006110898,-0.507822692,0.000362651,-0.508477149,-0.507374991,32.99345455,0.008139283,32.97,33,0.126625212,5.84E-05,0,1,0
0,0.014156468,0.001945569,0.008256642,0.02545798,-0.014156461,0.001945568,-0.025457968,-0.008256638,-9.74E-06,1.34E-06,-1.75E-05,-5.68E-06,-9.74E-06,1.34E-06,-1.75E-05,-5.68E-06,0.531425339,34.89523971,-105.36,81.83,0.123603202,0.002839706,0.115488788,0.12666827,0.000221475,0.000386927,6.59E-08,0.001453575,0.000171991,0.001290117,2.58E-08,0.011577427,-0.509952555,0.003593095,-0.520241057,-0.507308098,33.0063964,0.012860498,32.99,33.03,0.117647059,0.000258951,0,1,0
0,0.013870038,0.00319472,0.004128321,0.028210195,-0.013870032,0.003194718,-0.028210181,-0.004128319,-9.54E-06,2.20E-06,-1.94E-05,-2.84E-06,-9.54E-06,2.20E-06,-1.94E-05,-2.84E-06,-0.158014706,34.82195053,-106.08,150.86,0.117078333,0.002487813,0.110570087,0.121225975,0.00023602,0.000474232,1.05E-07,0.001828937,0.000179916,0.001876043,3.97E-08,0.019766376,-0.519587489,0.003555413,-0.524716572,-0.515204873,33.028,0.018379831,33,33.05,0.149321267,0.00023452,0,1,0
0,0.012316547,0.001017464,0.008256642,0.016513285,-0.012316541,0.001017464,-0.016513277,-0.008256638,-8.47E-06,7.00E-07,-1.14E-05,-5.68E-06,-8.47E-06,7.00E-07,-1.14E-05,-5.68E-06,0.394256642,38.50359998,-106.68,79.99,0.119994968,0.001105278,0.116607135,0.122706803,1.19E-07,2.90E-08,7.54E-08,1.81E-07,8.49E-08,3.79E-08,3.90E-08,2.39E-07,-0.515095833,0.000456295,-0.51593109,-0.514385459,33.04207207,0.011159541,33.03,33.07,0.117580554,-7.37E-06,0,1,0
0,0.012157688,0.000609445,0.008944696,0.015137178,-0.012157682,0.000609444,-0.01513717,-0.008944692,-8.37E-06,4.19E-07,-1.04E-05,-6.15E-06,-8.37E-06,4.19E-07,-1.04E-05,-6.15E-06,0.137228507,40.03826508,-102.83,97.11,0.12062768,0.001187353,0.11676395,0.123027869,2.05E-05,9.29E-05,6.49E-08,0.000522108,5.19E-05,0.00053649,2.70E-08,0.005652971,-0.514111409,0.000796209,-0.515904564,-0.513319526,33.05727273,0.011029637,33.03,33.07,0.113122172,-1.88E-05,0,1,0
0,0.011837011,0.000770779,0.010320803,0.017889392,-0.011837006,0.000770779,-0.017889383,-0.010320798,-8.14E-06,5.30E-07,-1.23E-05,-7.10E-06,-8.14E-06,5.30E-07,-1.23E-05,-7.10E-06,-0.595404183,38.32794706,-100.52,76.52,0.121777651,0.00107344,0.118772577,0.124066815,0.000148597,0.000264113,1.30E-07,0.000889022,0.000114488,0.000816161,3.04E-08,0.008270411,-0.512684646,0.00061968,-0.513992255,-0.511881662,33.06279279,0.011001324,33.03,33.07,0.122102883,3.86E-05,0,1,0
0,0.011832341,0.00042906,0.010320803,0.01376107,-0.011832336,0.00042906,-0.013761064,-0.010320798,-8.14E-06,2.95E-07,-9.47E-06,-7.10E-06,-8.14E-06,2.95E-07,-9.47E-06,-7.10E-06,-0.038535068,35.81650559,-91.62,59.78,0.120796859,0.001202114,0.116829794,0.123337489,4.74E-05,0.000112093,9.06E-08,0.000574819,1.47E-07,1.81E-07,3.01E-08,9.66E-07,-0.513911567,0.000646041,-0.514728217,-0.512951763,33.06927273,0.013731787,33.05,33.09,0.113122172,9.23E-05,0,1,0
0,0.013077682,0.000725503,0.011008856,0.015825231,-0.013077676,0.000725503,-0.015825224,-0.011008851,-9.00E-06,4.99E-07,-1.09E-05,-7.57E-06,-9.00E-06,4.99E-07,-1.09E-05,-7.57E-06,0.374409271,36.39546405,-96.99,59.45,0.120914231,0.000943854,0.117993105,0.122950718,1.24E-07,4.34E-08,7.83E-08,2.62E-07,8.50E-08,4.68E-08,3.87E-08,2.88E-07,-0.513688025,0.000413542,-0.5145096,-0.512913875,33.0663964,0.013206113,33.05,33.09,0.126625212,-1.37E-05,0,1,0
0,0.01355948,0.000437322,0.011008856,0.015825231,-0.013559474,0.000437322,-0.015825224,-0.011008851,-9.33E-06,3.01E-07,-1.09E-05,-7.57E-06,-9.33E-06,3.01E-07,-1.09E-05,-7.57E-06,-0.240848416,37.4350295,-93.73,57.01,0.121293864,0.001130065,0.117393477,0.123872338,1.16E-07,2.52E-08,7.72E-08,1.72E-07,8.92E-08,4.50E-08,4.08E-08,3.38E-07,-0.513224678,0.000322409,-0.513938584,-0.512878279,33.07290909,0.013970453,33.03,33.09,0.122171946,0.00015292,0,1,0
0,0.013547805,0.000457641,0.012384963,0.015825231,-0.013547799,0.000457641,-0.015825224,-0.012384958,-9.32E-06,3.15E-07,-1.09E-05,-8.52E-06,-9.32E-06,3.15E-07,-1.09E-05,-8.52E-06,0.161544118,35.16648834,-86.97,53.23,0.120518648,0.001201362,0.116132554,0.122888736,0.000240988,0.000456386,6.45E-08,0.001785218,0.000187853,0.00184095,2.89E-08,0.019447492,-0.514537325,0.000420959,-0.515202348,-0.51391717,33.07810811,0.012412832,33.05,33.11,0.117647059,5.56E-05,0,1,0
0,0.014233524,0.000498597,0.013073017,0.015825231,-0.014233517,0.000498597,-0.015825224,-0.013073011,-9.79E-06,3.43E-07,-1.09E-05,-8.99E-06,-9.79E-06,3.43E-07,-1.09E-05,-8.99E-06,0.079598643,35.08864479,-86.49,64.39,0.120704618,0.001075004,0.117719167,0.123488529,5.17E-05,0.000118017,7.76E-08,0.000453444,4.50E-05,0.000468649,4.45E-08,0.004937827,-0.514093059,0.000471671,-0.514782516,-0.513344487,33.07054545,0.013607242,33.05,33.09,0.117580554,-0.000118387,0,1,0
0,0.013351663,0.000628254,0.011008856,0.017201338,-0.013351657,0.000628254,-0.01720133,-0.011008851,-9.19E-06,4.32E-07,-1.18E-05,-7.57E-06,-9.19E-06,4.32E-07,-1.18E-05,-7.57E-06,0.050888009,38.40403282,-103.47,112.89,0.121436732,0.001195089,0.117835975,0.124386142,1.00E-05,2.41E-05,7.45E-08,0.000128475,8.15E-08,3.30E-08,3.18E-08,2.21E-07,-0.512917499,0.000130127,-0.513309313,-0.512738071,33.06927928,0.010019055,33.05,33.09,0.113122172,-3.62E-05,0,1,0
0,0.013459415,0.000435098,0.01169691,0.015825231,-0.013459409,0.000435098,-0.015825224,-0.011696904,-9.26E-06,2.99E-07,-1.09E-05,-8.05E-06,-9.26E-06,2.99E-07,-1.09E-05,-8.05E-06,-0.072820803,34.07510362,-84.81,66.5,0.120709807,0.001058386,0.117452972,0.123706424,0.000224608,0.000327118,1.16E-07,0.001003846,0.000201743,0.001276322,3.04E-08,0.010466805,-0.514342681,0.000373531,-0.514728829,-0.513148484,33.06117117,0.013605692,33.03,33.09,0.117580554,-6.44E-05,0,1,0
0,0.021159203,0.009822048,0.009632749,0.047475693,-0.021159193,0.009822044,-0.047475671,-0.009632745,-1.46E-05,6.76E-06,-3.27E-05,-6.63E-06,-1.46E-05,6.76E-06,-3.27E-05,-6.63E-06,0.235135747,42.93055061,-205.98,103.99,0.119454917,0.003481111,0.111728192,0.128180538,0.001694576,0.0022889,2.06E-06,0.007881487,0.001282951,0.00545159,2.35E-08,0.033952046,-0.517336922,0.004394965,-0.525502763,-0.512756413,33.05927273,0.011338518,33.03,33.07,0.122171946,5.49E-05,0,1,0
0,0.034364538,0.006057582,0.006192482,0.050227907,-0.034364521,0.00605758,-0.050227884,-0.006192479,-2.36E-05,4.17E-06,-3.46E-05,-4.26E-06,-2.36E-05,4.17E-06,-3.46E-05,-4.26E-06,-0.71267948,30.88341075,-143.88,88.76,0.108251577,0.002488616,0.103492199,0.113424187,0.000420792,0.001482556,7.48E-08,0.00671395,0.000776095,0.004991045,3.84E-08,0.04571117,-0.532584565,0.003467366,-0.539429097,-0.52562817,33.06531532,0.014194265,33.03,33.09,0.131147541,6.09E-05,0,1,0
0,0.033543388,0.008717752,0.009632749,0.079126155,-0.033543372,0.008717748,-0.079126118,-0.009632745,-2.31E-05,6.00E-06,-5.44E-05,-6.63E-06,-2.31E-05,6.00E-06,-5.44E-05,-6.63E-06,0.119332579,110.3148821,-481.65,404.27,0.105958893,0.003242463,0.101104099,0.117964421,0.003403026,0.003438303,9.25E-05,0.011567872,0.002357027,0.010616061,2.09E-08,0.083342735,-0.538791102,0.002133129,-0.542180799,-0.535431278,33.082,0.011184405,33.05,33.09,0.095022624,0.000228659,0,1,0
0,0.023470097,0.004954016,0.016513285,0.043347372,-0.023470086,0.004954014,-0.043347352,-0.016513277,-1.61E-05,3.41E-06,-2.98E-05,-1.14E-05,-1.61E-05,3.41E-06,-2.98E-05,-1.14E-05,0.104977376,40.82289869,-128,150.29,0.113476369,0.007584801,0.104645024,0.129057351,0.004467786,0.007016613,1.53E-05,0.025928125,0.003332735,0.020659691,2.00E-08,0.193703829,-0.529021258,0.005819035,-0.537663032,-0.515606634,33.10207207,0.012384029,33.07,33.13,0.122171946,7.34E-05,0,1,0
0,0.022407221,0.000837559,0.018577445,0.026146034,-0.02240721,0.000837559,-0.026146022,-0.018577436,-1.54E-05,5.76E-07,-1.80E-05,-1.28E-05,-1.54E-05,5.76E-07,-1.80E-05,-1.28E-05,-0.029536461,33.02892572,-87.46,74.96,0.114406828,0.003477291,0.107283178,0.122043731,0.002053128,0.001885578,1.78E-05,0.007088579,0.001550242,0.007364494,1.74E-08,0.053532657,-0.525116623,0.004176151,-0.529701183,-0.515565469,33.11218182,0.009851794,33.09,33.13,0.122102883,2.02E-05,0,1,0
0,0.023233482,0.000349429,0.022017713,0.024769927,-0.023233471,0.000349429,-0.024769915,-0.022017702,-1.60E-05,2.40E-07,-1.70E-05,-1.51E-05,-1.60E-05,2.40E-07,-1.70E-05,-1.51E-05,0.138303167,34.05048735,-116,81.87,0.114785221,0.001221365,0.11091959,0.117663998,0.000297027,0.000599897,1.98E-07,0.00232225,0.000158698,0.001662636,3.74E-08,0.017596571,-0.523014377,0.001292857,-0.52554473,-0.521691778,33.10855856,0.010641314,33.09,33.13,0.126696833,9.13E-06,0,1,0
0,0.023687254,0.000434314,0.022017713,0.024769927,-0.023687243,0.000434313,-0.024769915,-0.022017702,-1.63E-05,2.99E-07,-1.70E-05,-1.51E-05,-1.63E-05,2.99E-07,-1.70E-05,-1.51E-05,0.235901639,31.43618921,-79.65,42.26,0.115555138,0.001033861,0.111969687,0.117698385,1.46E-07,7.27E-08,7.86E-08,4.56E-07,8.78E-08,6.90E-08,3.70E-08,4.70E-07,-0.52147451,0.000508467,-0.522028898,-0.519941849,33.10709091,0.012887306,33.07,33.13,0.113058225,5.77E-06,0,1,0
0,0.023524581,0.001072557,0.019265499,0.027522141,-0.02352457,0.001072557,-0.027522128,-0.01926549,-1.62E-05,7.38E-07,-1.89E-05,-1.33E-05,-1.62E-05,7.38E-07,-1.89E-05,-1.33E-05,-0.363857466,33.8536729,-90.46,118.25,0.117618022,0.001207675,0.11369786,0.120558583,2.59E-05,7.21E-05,7.44E-08,0.000281056,2.77E-05,0.000289155,3.84E-08,0.003060356,-0.518535443,0.000581305,-0.5198765,-0.517082142,33.08837838,0.018431296,33.05,33.11,0.122171946,-0.000288522,0,1,0
0,0.021809896,0.000813707,0.019265499,0.02545798,-0.021809885,0.000813706,-0.025457968,-0.01926549,-1.50E-05,5.60E-07,-1.75E-05,-1.33E-05,-1.50E-05,5.60E-07,-1.75E-05,-1.33E-05,-0.025186652,34.53392565,-97.79,67.84,0.119800677,0.00119501,0.116578953,0.122925278,6.41E-05,0.000106764,1.80E-07,0.000420345,4.17E-05,0.000434485,3.41E-08,0.004577869,-0.515338953,0.001150247,-0.517037419,-0.51291965,33.07036364,0.014265487,33.05,33.11,0.122171946,-0.00017474,0,1,0
0,0.020488273,0.005510899,0.002064161,0.049539854,-0.020349718,0.006002322,-0.04953983,0.026146022,-1.40E-05,4.13E-06,-3.41E-05,1.80E-05,-1.40E-05,4.13E-06,-3.41E-05,1.80E-05,-0.519841718,82.54902796,-295.85,249.65,1.661611854,0.21473172,1.354955234,2.279401241,0.329316255,0.232490369,0.04985846,1.078082029,0.286097476,0.541009785,1.29E-08,2.568902721,1.390929604,0.126030772,1.135900787,1.542379012,32.73290909,0.011704347,32.71,32.75,0.072357264,-2.31E-05,0,0,1
0,0.029959905,0.009072667,0.002064161,0.047475693,-0.029955221,0.00908807,-0.047475671,0.00206416,-2.06E-05,6.25E-06,-3.27E-05,1.42E-06,-2.06E-05,6.25E-06,-3.27E-05,1.42E-06,-0.594338235,146.0015677,-432.66,648.68,2.023232074,0.12291511,1.857547426,2.389370614,0.432105938,0.314174464,0.044437997,1.180326343,0.292412524,0.830388769,1.58E-08,6.518460313,1.813262711,0.208959417,1.542504637,2.064741723,32.70891892,0.017364733,32.68,32.73,0.149321267,-8.60E-06,0,0,1
0,0.021037003,0.00446786,0.000688054,0.044723479,-0.02102454,0.004526098,-0.044723458,0.004816372,-1.45E-05,3.11E-06,-3.08E-05,3.31E-06,-1.45E-05,3.11E-06,-3.08E-05,3.31E-06,1.576770362,64.35404682,-256.37,175.76,2.095945651,0.150065771,1.939923315,2.492871165,0.275699907,0.207776837,0.064856466,0.817173311,0.237544992,0.530893273,9.69E-09,3.058559204,2.074671528,0.052218498,2.015433815,2.165896589,32.69972727,0.018657638,32.66,32.73,0.158371041,-0.000207876,0,0,1
0,0.017293856,0.003075765,0.002064161,0.0488518,-0.017281408,0.003144903,-0.048851777,0.005504426,-1.19E-05,2.16E-06,-3.36E-05,3.79E-06,-1.19E-05,2.16E-06,-3.36E-05,3.79E-06,-3.445110232,69.48874699,-444.39,278.54,2.45353711,0.228057274,2.152403571,3.013938553,0.661241444,0.319298645,0.253452995,1.450795292,0.494261673,0.934568863,1.45E-08,5.139579906,2.207793972,0.017490631,2.167036536,2.229597502,32.67207207,0.015014535,32.65,32.71,0.027133974,-0.000215163,0,0,1
0,0.014542525,0.003544822,0.000688054,0.028898248,-0.014540961,0.003551201,-0.028898234,0.000688053,-1.00E-05,2.44E-06,-1.99E-05,4.73E-07,-1.00E-05,2.44E-06,-1.99E-05,4.73E-07,3.246651584,86.42000168,-249.96,269.2,2.43066039,0.201986701,2.116833196,2.908837027,0.42022205,0.213767468,0.121951911,0.883764167,0.326065358,0.688389568,1.35E-08,3.999128218,2.415597183,0.185295631,2.199823505,2.72312899,32.64545455,0.016272473,32.61,32.68,0.07239819,-0.000443974,0,0,1
0,0.016659613,0.005725701,0,0.047475693,-0.016587997,0.005929957,-0.047475671,0.013761064,-1.14E-05,4.08E-06,-3.27E-05,9.47E-06,-1.14E-05,4.08E-06,-3.27E-05,9.47E-06,-1.041464104,73.59366074,-402.71,248.08,2.606524348,0.127326024,2.443391952,2.979376229,0.415109464,0.165687169,0.137534553,0.893852568,0.30792178,0.674723597,1.52E-08,4.05465338,2.675771769,0.088884186,2.574397701,2.877878382,32.61378378,0.016875488,32.59,32.65,0.140192199,-0.000338013,0,0,1
0,0.018933925,0.00571581,0.000688054,0.078438102,-0.018860752,0.005952786,-0.078438065,0.027522128,-1.30E-05,4.10E-06,-5.40E-05,1.89E-05,-1.30E-05,4.10E-06,-5.40E-05,1.89E-05,-0.183472851,75.77675104,-388.09,386.04,2.583862899,0.082998497,2.484462876,2.849508766,0.220955595,0.127987139,0.084903522,0.604079539,0.163855055,0.364846519,1.47E-08,2.539836399,2.837030023,0.030083115,2.789116606,2.889536843,32.57309091,0.01506021,32.55,32.61,0.081447964,-0.000243536,0,0,1
0,0.016790061,0.003934783,0,0.039219051,-0.016783833,0.003961228,-0.039219032,0.00206416,-1.15E-05,2.73E-06,-2.70E-05,1.42E-06,-1.15E-05,2.73E-06,-2.70E-05,1.42E-06,0.218490673,51.74888337,-348.28,204.23,2.619633003,0.187728876,2.414098988,3.124661401,0.304869051,0.297864065,0.019994709,1.106594507,0.280320825,0.631042204,1.59E-08,4.54843306,2.804957048,0.046734224,2.722193909,2.865433348,32.53936937,0.01846737,32.5,32.57,0.149236857,-0.000230081,0,0,1
0,0.015315418,0.004234982,0.000688054,0.040595158,-0.01526871,0.00440038,-0.040595139,0.010320798,-1.05E-05,3.03E-06,-2.79E-05,7.10E-06,-1.05E-05,3.03E-06,-2.79E-05,7.10E-06,0.544903846,96.55087872,-406.87,329.27,2.53937381,0.12418201,2.377516464,2.909388655,0.202089556,0.133452555,0.065780014,0.715437054,0.111452748,0.264341064,2.69E-08,1.668444761,2.791283875,0.08623313,2.698582271,2.923490494,32.50127273,0.015021747,32.47,32.53,0.076923077,-0.000324234,0,0,1
0,0.015968446,0.002942343,0.002752214,0.03509073,-0.015946645,0.003058254,-0.035090713,0.006192479,-1.10E-05,2.10E-06,-2.41E-05,4.26E-06,-1.10E-05,2.10E-06,-2.41E-05,4.26E-06,0.204242081,56.58969351,-359.73,160.33,2.442260682,0.074094482,2.312370766,2.624395506,0.184510653,0.112179078,0.01904637,0.432917529,0.144791562,0.359835919,2.80E-08,2.567411086,2.668167773,0.022704182,2.606671022,2.702401933,32.48261261,0.01167979,32.47,32.5,0.049773756,-0.000124079,0,0,1
0,0.019198561,0.006925363,0,0.066053138,-0.019172089,0.006998288,-0.066053107,0.011696904,-1.32E-05,4.82E-06,-4.54E-05,8.05E-06,-1.32E-05,4.82E-06,-4.54E-05,8.05E-06,0.353634822,39.74897356,-186.65,145.89,2.307669199,0.065213553,2.214050159,2.487167555,0.138937336,0.104572784,0.022090941,0.48244842,0.100614386,0.244562203,1.15E-08,1.54740769,2.518414278,0.065855761,2.429853276,2.605203731,32.47145455,0.01197242,32.45,32.49,0.131147541,-6.06E-05,0,0,1
0,0.014129226,0.001627165,0.004816375,0.020641606,-0.014129219,0.001627164,-0.020641596,-0.004816372,-9.72E-06,1.12E-06,-1.42E-05,-3.31E-06,-9.72E-06,1.12E-06,-1.42E-05,-3.31E-06,0.420446833,74.67175536,-268.36,331.69,2.45415623,0.158529067,2.230816446,2.893698988,0.277108025,0.197476928,0.040121293,0.864670811,0.234880121,0.514816115,2.15E-08,2.743664726,2.592796328,0.049136676,2.479400991,2.721451383,32.44585586,0.010086872,32.43,32.47,0.153846154,7.95E-05,0,0,1
0,0.012897311,0.001565298,0.002752214,0.021329659,-0.012897305,0.001565297,-0.021329649,-0.002752213,-8.87E-06,1.08E-06,-1.47E-05,-1.89E-06,-8.87E-06,1.08E-06,-1.47E-05,-1.89E-06,-1.53388355,72.50144657,-242.19,262.36,2.661309323,0.10320365,2.507114679,2.907589995,0.248154829,0.111107481,0.079226761,0.482925171,0.181504359,0.41350169,2.36E-08,2.252968258,2.922137697,0.070838063,2.731323064,3.037936591,32.44351351,0.009362437,32.43,32.45,0.194460147,-9.86E-05,0,0,1
0,0.012462019,0.001606963,0.002752214,0.019953552,-0.012462013,0.001606962,-0.019953543,-0.002752213,-8.57E-06,1.11E-06,-1.37E-05,-1.89E-06,-8.57E-06,1.11E-06,-1.37E-05,-1.89E-06,0.128585973,85.20246527,-425.33,209.96,2.825234126,0.149516859,2.589236041,3.119575737,0.354945171,0.209042638,0.038029691,0.829162689,0.271375063,0.546568811,1.57E-08,2.730753763,3.053079316,0.033778388,3.006968585,3.106715638,32.42763636,0.016344433,32.41,32.45,0.162895928,-0.000334783,0,0,1
0,0.012602899,0.001487802,0.006192482,0.019953552,-0.012602893,0.001487801,-0.019953543,-0.006192479,-8.67E-06,1.02E-06,-1.37E-05,-4.26E-06,-8.67E-06,1.02E-06,-1.37E-05,-4.26E-06,-2.025613341,80.86878278,-331.65,231.76,2.63216626,0.094374851,2.480406692,2.877806975,0.1872521,0.118403383,0.044122758,0.457917966,0.138491572,0.32168576,3.40E-08,1.959890042,2.940699884,0.08034677,2.831042901,3.027893652,32.40405405,0.016240222,32.37,32.43,0.162803844,-6.25E-05,0,0,1
0,0.01266828,0.002086112,0.000688054,0.019953552,-0.012668274,0.002086111,-0.019953543,-0.000688053,-8.72E-06,1.44E-06,-1.37E-05,-4.73E-07,-8.72E-06,1.44E-06,-1.37E-05,-4.73E-07,1.83956448,102.0242935,-282.35,324.85,2.502940159,0.094081276,2.358003882,2.705549073,0.141995554,0.085972417,0.036718359,0.38048918,0.105917622,0.237501233,2.36E-08,1.674449602,2.798635115,0.072021319,2.643171524,2.86700214,32.38309091,0.014253896,32.34,32.41,0.108597285,-0.000208823,0,0,1
0,0.011658771,0.00186119,0.000688054,0.019265499,-0.011658766,0.001861189,-0.01926549,-0.000688053,-8.02E-06,1.28E-06,-1.33E-05,-4.73E-07,-8.02E-06,1.28E-06,-1.33E-05,-4.73E-07,0.905531674,87.80111203,-298.03,315.76,2.252949659,0.082113381,2.106088842,2.401665589,0.062846437,0.05290402,0.014717022,0.222381198,0.042672467,0.141122094,2.03E-08,1.024849788,2.515061109,0.087911466,2.337254266,2.640298797,32.34585586,0.016574618,32.33,32.39,0.045248869,-0.000313794,0,0,1
0,0.013695764,0.007996902,0,0.088070851,-0.013585358,0.008183044,-0.088070809,0.019953543,-9.35E-06,5.63E-06,-6.06E-05,1.37E-05,-9.35E-06,5.63E-06,-6.06E-05,1.37E-05,-0.371599774,101.6461912,-308,315.88,2.229546048,0.158358623,2.067951618,2.675795299,0.213335344,0.200661477,0.013710865,0.841591547,0.170993387,0.456207372,2.80E-08,2.789931534,2.330975478,0.064207594,2.267788861,2.463431205,32.32090909,0.014177155,32.29,32.34,0.076879593,-0.000351464,0,0,1
0,0.012286114,0.001890095,0,0.026834087,-0.012286108,0.001890094,-0.026834075,0,-8.45E-06,1.30E-06,-1.85E-05,0,-8.45E-06,1.30E-06,-1.85E-05,0,0.397217195,104.0769855,-289.95,430.63,2.165728921,0.042035339,2.063355781,2.252413804,0.113738751,0.053174599,0.017730387,0.232271751,0.092305473,0.210665182,1.44E-08,1.275701539,2.33789226,0.063282449,2.268285408,2.46343475,32.28783784,0.012404983,32.27,32.31,0.171945701,-0.000174447,0,0,1
0,0.01166889,0.001513359,0.006880535,0.020641606,-0.011668884,0.001513359,-0.020641596,-0.006880532,-8.03E-06,1.04E-06,-1.42E-05,-4.73E-06,-8.03E-06,1.04E-06,-1.42E-05,-4.73E-06,-0.565302431,117.7888811,-386.36,302.7,2.052991354,0.061871776,1.963209116,2.203228861,0.084708357,0.038956034,0.016291796,0.167973353,0.057605532,0.168305484,1.47E-08,1.180019794,2.203444338,0.073048821,2.131520507,2.337222997,32.27109091,0.018846049,32.23,32.31,0.094968909,-0.000450826,0,0,1
0,0.012065844,0.001655216,0.004128321,0.019265499,-0.012065838,0.001655215,-0.01926549,-0.004128319,-8.30E-06,1.14E-06,-1.33E-05,-2.84E-06,-8.30E-06,1.14E-06,-1.33E-05,-2.84E-06,-1.107437783,119.372424,-372.84,316.38,2.131754458,0.095354572,1.965424993,2.388063553,0.163074479,0.140284998,0.027580014,0.600024684,0.137807189,0.269362801,1.87E-08,1.454162671,2.239214555,0.060130811,2.13214233,2.313342294,32.23954955,0.013910097,32.21,32.27,0.126696833,-0.000136539,0,0,1
0,0.01273366,0.006224181,0,0.040595158,-0.012584213,0.006521038,-0.040595139,0.013761064,-8.66E-06,4.49E-06,-2.79E-05,9.47E-06,-8.66E-06,4.49E-06,-2.79E-05,9.47E-06,0.564479638,127.8214674,-450.16,902.17,2.142470922,0.072450185,2.038442757,2.378340152,0.243507008,0.17920714,0.040196478,0.744393157,0.204465904,0.453188322,6.95E-09,3.111163987,2.174475282,0.117739355,1.929923987,2.326955117,32.21290909,0.019228079,32.16,32.25,0.090497738,-0.000429908,0,0,1
0,0.033657804,0.0003767,0.032338516,0.03509073,-0.033657788,0.0003767,-0.035090713,-0.0323385,-2.32E-05,2.59E-07,-2.41E-05,-2.23E-05,-2.32E-05,2.59E-07,-2.41E-05,-2.23E-05,-0.502475975,51.30849875,-138.99,99.66,0.167108513,0.001399387,0.162150161,0.170329767,0.000471741,0.000642404,2.54E-07,0.002327981,0.000248051,0.001764736,3.10E-08,0.017682497,-0.447188629,0.001153411,-0.448920357,-0.445646163,32.84381818,0.018731685,32.81,32.89,0.122102883,-0.000379776,1,0,0
0,0.033861729,0.000317802,0.033026569,0.034402676,-0.033861713,0.000317802,-0.03440266,-0.033026554,-2.33E-05,2.19E-07,-2.37E-05,-2.27E-05,-2.33E-05,2.19E-07,-2.37E-05,-2.27E-05,0.788710407,53.15628206,-158.55,92.2,0.169978795,0.002397608,0.164243784,0.17456059,0.000793386,0.00106089,6.74E-06,0.004016248,0.000586674,0.003735305,2.09E-08,0.033200233,-0.443270698,0.002307794,-0.446692385,-0.440060944,32.81252252,0.017730133,32.79,32.84,0.113122172,-0.000386276,1,0,0
0,0.03463073,0.003004498,0.019265499,0.06054871,-0.034630714,0.003004496,-0.060548681,-0.01926549,-2.38E-05,2.07E-06,-4.17E-05,-1.33E-05,-2.38E-05,2.07E-06,-4.17E-05,-1.33E-05,-0.252856335,83.66968624,-269.59,522.28,0.171279673,0.002738266,0.162887705,0.178335756,0.001703318,0.002153907,8.93E-07,0.008884028,0.001348201,0.007303439,1.74E-08,0.066501169,-0.442432938,0.001900905,-0.445032087,-0.439551864,32.79,0.012933396,32.77,32.83,0.126696833,-0.000219462,1,0,0
0,0.033543581,0.006433982,0,0.067429245,-0.033509357,0.00660983,-0.067429213,0.006880532,-2.31E-05,4.55E-06,-4.64E-05,4.73E-06,-2.31E-05,4.55E-06,-4.64E-05,4.73E-06,0.648490673,108.6302136,-434.24,347.06,0.172977977,0.006372473,0.164095741,0.1876534,0.001880507,0.002635905,1.04E-05,0.010487861,0.001532641,0.011075666,2.54E-08,0.114239599,-0.440226243,0.006754129,-0.44658403,-0.429009962,32.7718018,0.015316375,32.75,32.81,0.140192199,-5.46E-05,1,0,0
0,0.035043251,0.000739374,0.026834087,0.036466837,-0.035043234,0.000739374,-0.03646682,-0.026834075,-2.41E-05,5.09E-07,-2.51E-05,-1.85E-05,-2.41E-05,5.09E-07,-2.51E-05,-1.85E-05,-0.335192308,75.51324003,-446.7,260.35,0.173959114,0.002595501,0.166355604,0.181256275,0.002142394,0.001894161,7.48E-06,0.005715806,0.001599271,0.005174429,2.26E-08,0.033223123,-0.438954609,0.00392655,-0.446300651,-0.43123019,32.77327273,0.011917069,32.75,32.79,0.117647059,9.88E-05,1,0,0
0,0.033702948,0.001472867,0.021329659,0.037842944,-0.033702932,0.001472866,-0.037842926,-0.021329649,-2.32E-05,1.01E-06,-2.60E-05,-1.47E-05,-2.32E-05,1.01E-06,-2.60E-05,-1.47E-05,-0.399327304,90.80906365,-572.43,335.04,0.187642585,0.009253505,0.166763248,0.207254647,0.00468477,0.004920375,2.69E-05,0.019460811,0.003617859,0.015069282,1.46E-08,0.133653025,-0.421587319,0.009858636,-0.443177346,-0.40613139,32.77576577,0.010530911,32.75,32.79,0.131147541,-8.42E-05,1,0,0
0,0.03298376,0.00024879,0.030962409,0.034402676,-0.032983745,0.00024879,-0.03440266,-0.030962394,-2.27E-05,1.71E-07,-2.37E-05,-2.13E-05,-2.27E-05,1.71E-07,-2.37E-05,-2.13E-05,0.830005656,57.41571428,-154.88,100.38,0.177928225,0.00337626,0.17156921,0.18393926,0.000725753,0.001152167,7.22E-06,0.004662163,0.000815972,0.004012459,2.53E-08,0.031394466,-0.431648291,0.005154845,-0.438911351,-0.423817593,32.76854545,0.010688683,32.75,32.79,0.135746606,-0.000109641,1,0,0
0,0.030397194,0.003187378,0.007568589,0.039219051,-0.03039718,0.003187376,-0.039219032,-0.007568585,-2.09E-05,2.19E-06,-2.70E-05,-5.21E-06,-2.09E-05,2.19E-06,-2.70E-05,-5.21E-06,-0.987473149,70.5753316,-263.46,285.82,0.178540925,0.003768383,0.172599328,0.186690684,0.002137821,0.002576675,8.48E-06,0.009793488,0.001299585,0.006675874,1.91E-08,0.052907115,-0.432251755,0.003985288,-0.439075281,-0.42733413,32.76783784,0.009809483,32.75,32.79,0.126625212,-2.00E-05,1,0,0
0,0.030219871,0.000188654,0.029586302,0.030962409,-0.030219857,0.000188654,-0.030962394,-0.029586288,-2.08E-05,1.30E-07,-2.13E-05,-2.04E-05,-2.08E-05,1.30E-07,-2.13E-05,-2.04E-05,-0.036504525,61.72086537,-147.99,97.52,0.174067471,0.002101762,0.169215097,0.178883434,0.000295497,0.000541265,7.75E-07,0.002126843,0.00022724,0.001880395,3.49E-08,0.019434441,-0.437006469,0.002050766,-0.439176646,-0.433144364,32.76163636,0.01510733,32.73,32.79,0.126696833,0.00011469,1,0,0
0,0.030273577,6.12E-05,0.029586302,0.030962409,-0.030273562,6.12E-05,-0.030962394,-0.029586288,-2.08E-05,4.21E-08,-2.13E-05,-2.04E-05,-2.08E-05,4.21E-08,-2.13E-05,-2.04E-05,0.665056561,58.5371065,-149.66,94.8,0.172629405,0.001045721,0.16905681,0.174680752,1.30E-06,1.68E-06,9.38E-08,6.66E-06,6.14E-07,5.24E-06,3.67E-08,5.55E-05,-0.438631705,0.000904987,-0.439792544,-0.437394754,32.75414414,0.010777727,32.73,32.79,0.126696833,-4.90E-05,1,0,0
0,0.030246335,0.000157863,0.029586302,0.030962409,-0.03024632,0.000157863,-0.030962394,-0.029586288,-2.08E-05,1.09E-07,-2.13E-05,-2.04E-05,-2.08E-05,1.09E-07,-2.13E-05,-2.04E-05,0.045200678,62.88157493,-169.02,115.32,0.171991829,0.001075405,0.169011517,0.173968921,4.18E-05,8.39E-05,1.02E-07,0.000323848,3.22E-05,0.000334233,3.61E-08,0.003521658,-0.439762367,0.000588442,-0.440411577,-0.438163192,32.75018182,0.011907356,32.73,32.77,0.13566987,-5.62E-05,1,0,0
0,0.03026268,0.000225255,0.029586302,0.030962409,-0.030262666,0.000225255,-0.030962394,-0.029586288,-2.08E-05,1.55E-07,-2.13E-05,-2.04E-05,-2.08E-05,1.55E-07,-2.13E-05,-2.04E-05,-0.42091629,62.37038629,-151,107.19,0.17285959,0.001366552,0.168407923,0.175744672,0.000325879,0.000644374,7.22E-08,0.002498545,0.000251467,0.001575005,2.52E-08,0.012968697,-0.438685963,0.000786024,-0.439859473,-0.437331546,32.74171171,0.012438959,32.71,32.77,0.122171946,-9.39E-05,1,0,0
0,0.030284462,9.48E-05,0.029586302,0.030962409,-0.030284448,9.48E-05,-0.030962394,-0.029586288,-2.08E-05,6.52E-08,-2.13E-05,-2.04E-05,-2.08E-05,6.52E-08,-2.13E-05,-2.04E-05,0.351271905,58.92014191,-151.65,98.99,0.174544541,0.001138342,0.171368846,0.177160999,4.21E-05,9.87E-05,8.06E-08,0.000378419,3.72E-05,0.000382234,3.90E-08,0.004045431,-0.436006208,0.000643954,-0.437283593,-0.43437489,32.73720721,0.011001324,32.71,32.75,0.131147541,-6.11E-05,1,0,0