,net_acc_mean,net_acc_std,net_acc_min,net_acc_max,ACC_x_mean,ACC_x_std,ACC_x_min,ACC_x_max,ACC_y_mean,ACC_y_std,ACC_y_min,ACC_y_max,ACC_z_mean,ACC_z_std,ACC_z_min,ACC_z_max,BVP_mean,BVP_std,BVP_min,BVP_max,EDA_mean,EDA_std,EDA_min,EDA_max,EDA_phasic_mean,EDA_phasic_std,EDA_phasic_min,EDA_phasic_max,EDA_smna_mean,EDA_smna_std,EDA_smna_min,EDA_smna_max,EDA_tonic_mean,EDA_tonic_std,EDA_tonic_min,EDA_tonic_max,TEMP_mean,TEMP_std,TEMP_min,TEMP_max,BVP_peak_freq,TEMP_slope,0,1,2
0,0.02770329,0.001536909,0.022705766,0.031650462,0.027703276,0.001536909,0.022705756,0.031650447,1.91E-05,1.06E-06,1.56E-05,2.18E-05,1.91E-05,1.06E-06,1.56E-05,2.18E-05,-0.76906727,38.72994687,-128.88,115.64,0.610562275,0.02118926,0.578254614,0.649254199,0.009096532,0.004774697,0.000977972,0.021312787,0.006565115,0.019989017,6.33E-08,0.101644264,0.954309426,0.096486613,0.813038332,1.134538264,33.40509091,0.016222625,33.37,33.43,0.126625212,0.000430178,0,1,0
0,0.026384985,0.000391625,0.024769927,0.027522141,0.026384972,0.000391625,0.024769915,0.027522128,1.82E-05,2.69E-07,1.70E-05,1.89E-05,1.82E-05,2.69E-07,1.70E-05,1.89E-05,0.791691176,36.30273613,-95.51,64.11,0.555548849,0.012364503,0.534440226,0.577892435,0.004451306,0.002946738,0.000863918,0.013542676,0.003565955,0.014697408,8.29E-08,0.10537043,0.705579092,0.057768772,0.614201015,0.810809327,33.43036036,0.020265265,33.39,33.47,0.135746606,0.000423482,0,1,0
0,0.026400551,0.00033698,0.026146034,0.027522141,0.026400539,0.00033698,0.026146022,0.027522128,1.82E-05,2.32E-07,1.80E-05,1.89E-05,1.82E-05,2.32E-07,1.80E-05,1.89E-05,-0.445726399,38.41179853,-95.8,92.87,0.5210882,0.00845157,0.50670815,0.53684547,0.006078643,0.003522815,0.000943168,0.015548577,0.006441793,0.024244176,6.65E-08,0.19881638,0.545169884,0.038046793,0.483898674,0.612978924,33.458,0.013537826,33.43,33.49,0.13566987,0.00016374,0,1,0
0,0.026472159,0.007462429,0,0.087382798,0.026261994,0.00817129,-0.019953543,0.087382756,1.81E-05,5.62E-06,-1.37E-05,6.01E-05,1.81E-05,5.62E-06,-1.37E-05,6.01E-05,0.232279412,67.14685306,-386.4,195.91,0.521058152,0.018757445,0.501711789,0.576779647,0.099575789,0.096621299,0.011015969,0.359477428,0.075367182,0.270954402,2.82E-08,1.952645018,0.451419235,0.017579224,0.429484136,0.48249767,33.48810811,0.017373145,33.47,33.53,0.131221719,0.000379607,0,1,0
0,0.025212803,0.000525045,0.02339382,0.028898248,0.025212791,0.000525044,0.023393809,0.028898234,1.73E-05,3.61E-07,1.61E-05,1.99E-05,1.73E-05,3.61E-07,1.61E-05,1.99E-05,-0.662047511,40.10673253,-120.68,96.25,0.495270232,0.006739879,0.483227257,0.509960108,0.006847159,0.003822881,0.001447697,0.018377424,0.005914439,0.021216528,6.06E-08,0.168037976,0.425587013,0.031454401,0.368443311,0.480947537,33.51827273,0.017207773,33.5,33.55,0.126696833,0.000314541,0,1,0
0,0.027956742,0.001520508,0.024081873,0.033026569,0.027956729,0.001520507,0.024081862,0.033026554,1.92E-05,1.05E-06,1.66E-05,2.27E-05,1.92E-05,1.05E-06,1.66E-05,2.27E-05,0.47522329,37.05420689,-138.96,102.35,0.475182536,0.008036628,0.458238313,0.486549131,0.013289895,0.007005841,0.002562151,0.032141805,0.009510671,0.031792527,7.30E-08,0.178836115,0.326344287,0.033286684,0.25816923,0.367057057,33.56657658,0.020067252,33.53,33.61,0.13566987,0.000408915,0,1,0
0,0.027441972,0.002217626,0.01376107,0.043347372,0.027441959,0.002217625,0.013761064,0.043347352,1.89E-05,1.53E-06,9.47E-06,2.98E-05,1.89E-05,1.53E-06,9.47E-06,2.98E-05,-0.083529412,48.94405619,-225.37,196.91,0.448486461,0.006165365,0.437337275,0.460784643,0.013498597,0.013366528,0.001433946,0.058071181,0.009810744,0.038942633,5.24E-08,0.312840756,0.203387506,0.028518255,0.166089089,0.257193857,33.59945455,0.013673888,33.57,33.63,0.135746606,8.87E-05,0,1,0
0,0.026943834,0.000326052,0.02545798,0.028210195,0.026943821,0.000326052,0.025457968,0.028210181,1.85E-05,2.24E-07,1.75E-05,1.94E-05,1.85E-05,2.24E-07,1.75E-05,1.94E-05,0.291520633,34.59441273,-75.57,57.74,0.427336562,0.005643535,0.417938868,0.43894426,0.002155354,0.001301697,0.000207596,0.00451596,0.001647458,0.005962862,7.97E-08,0.035580645,0.117184893,0.025429433,0.074372303,0.165264414,33.62585586,0.014235375,33.59,33.65,0.144714528,0.000253949,0,1,0
0,0.026759367,0.000269454,0.026146034,0.027522141,0.026759354,0.000269454,0.026146022,0.027522128,1.84E-05,1.85E-07,1.80E-05,1.89E-05,1.84E-05,1.85E-07,1.80E-05,1.89E-05,0.098257919,35.20049659,-74.82,48.43,0.407720748,0.005411036,0.397883719,0.418355287,0.00207124,0.002060319,0.000115754,0.007783868,0.001935276,0.00836015,7.98E-08,0.054951437,0.026967156,0.024340926,-0.012115433,0.073451769,33.64663636,0.01169905,33.61,33.66,0.14479638,0.000168834,0,1,0
0,0.026806099,0.000217625,0.026146034,0.028210195,0.026806086,0.000217625,0.026146022,0.028210181,1.84E-05,1.50E-07,1.80E-05,1.94E-05,1.84E-05,1.50E-07,1.80E-05,1.94E-05,-0.24897117,37.00266065,-77.15,49.02,0.392426829,0.003887043,0.384016771,0.400044117,0.00163243,0.001492428,0.000117817,0.005578929,0.001102747,0.004735809,7.40E-08,0.029404074,-0.043099186,0.016355852,-0.071616576,-0.012809111,33.66756757,0.010756621,33.65,33.68,0.144714528,0.000160232,0,1,0
0,0.026602142,0.002662965,0.009632749,0.03715489,0.026602129,0.002662963,0.009632745,0.037154873,1.83E-05,1.83E-06,6.63E-06,2.56E-05,1.83E-05,1.83E-06,6.63E-06,2.56E-05,-0.334038462,51.50270687,-223.43,334.89,0.386800981,0.001604502,0.382417619,0.389951071,0.003996449,0.00464652,5.40E-05,0.017464378,0.003145524,0.016390154,6.33E-08,0.150571371,-0.071424951,0.005212927,-0.081896811,-0.063877385,33.68472727,0.015118267,33.66,33.73,0.135746606,0.000206659,0,1,0
0,0.030069651,0.005515545,0.015137178,0.048163747,0.030069637,0.005515542,0.01513717,0.048163724,2.07E-05,3.79E-06,1.04E-05,3.31E-05,2.07E-05,3.79E-06,1.04E-05,3.31E-05,0.138218326,48.37831208,-170.23,153.82,0.372611186,0.006590271,0.361650892,0.385268309,0.009832206,0.004367881,0.001868299,0.018925307,0.007473473,0.02722499,4.27E-08,0.196486584,-0.142532441,0.031257923,-0.187845824,-0.08294375,33.72027027,0.01867018,33.68,33.75,0.149321267,0.000304844,0,1,0
0,0.036625618,0.0017897,0.028210195,0.049539854,0.036625601,0.001789699,0.028210181,0.04953983,2.52E-05,1.23E-06,1.94E-05,3.41E-05,2.52E-05,1.23E-06,1.94E-05,3.41E-05,0.505873375,33.33576507,-184.5,194.15,0.35561629,0.003336094,0.348406196,0.361496632,0.004187604,0.005405834,0.000540559,0.027804334,0.004601236,0.020265837,8.85E-08,0.146021717,-0.215352403,0.016717604,-0.24997256,-0.188412152,33.719,0.016621454,33.68,33.73,0.144714528,-2.93E-06,0,1,0
0,0.030973305,0.001889956,0.015825231,0.050227907,0.030973291,0.001889956,0.015825224,0.050227884,2.13E-05,1.30E-06,1.09E-05,3.46E-05,2.13E-05,1.30E-06,1.09E-05,3.46E-05,-0.297658371,35.13053338,-180.87,177.74,0.342456903,0.003428097,0.336135257,0.351536168,0.005209249,0.004270704,0.000553102,0.024144473,0.002665764,0.00985174,7.57E-08,0.056420534,-0.27672246,0.013601232,-0.299266664,-0.250763182,33.71207207,0.013630723,33.68,33.73,0.140271493,0.000135311,0,1,0
0,0.033125307,0.004196357,0.004128321,0.051604014,0.033125291,0.004196355,0.004128319,0.05160399,2.28E-05,2.89E-06,2.84E-06,3.55E-05,2.28E-05,2.89E-06,2.84E-06,3.55E-05,-0.375912945,32.08091737,-137.36,113.42,0.33111063,0.00407496,0.322413659,0.337823536,0.005932354,0.005141619,0.000774223,0.020912906,0.006841213,0.02652961,5.03E-08,0.205414774,-0.329706009,0.021577927,-0.365654953,-0.299600206,33.72099099,0.016382531,33.68,33.75,0.140192199,-5.42E-05,0,1,0
0,0.038713908,0.004336749,0.011008856,0.052980121,0.038713889,0.004336747,0.011008851,0.052980096,2.66E-05,2.98E-06,7.57E-06,3.65E-05,2.66E-05,2.98E-06,7.57E-06,3.65E-05,0.364021493,65.34727331,-328.77,231.43,0.31662461,0.009038231,0.297671811,0.334624084,0.019238725,0.010097847,0.003613541,0.041701983,0.013111204,0.044411913,4.10E-08,0.280493079,-0.409838646,0.033423576,-0.462101715,-0.365934433,33.73454545,0.014686813,33.71,33.77,0.14479638,0.000154092,0,1,0
0,0.03911164,0.001320592,0.034402676,0.044723479,0.039111621,0.001320592,0.03440266,0.044723458,2.69E-05,9.09E-07,2.37E-05,3.08E-05,2.69E-05,9.09E-07,2.37E-05,3.08E-05,0.154646693,43.04138744,-133.81,152.47,0.30909293,0.003379992,0.302612488,0.314984984,0.01051027,0.00687971,0.000629304,0.0258953,0.007897922,0.027835694,7.07E-08,0.202936275,-0.435918885,0.01699906,-0.462321209,-0.410876404,33.75720721,0.011001324,33.73,33.77,0.149236857,0.000142506,0,1,0
0,0.039569304,0.001243409,0.033714623,0.054356228,0.039569286,0.001243409,0.033714607,0.054356203,2.72E-05,8.56E-07,2.32E-05,3.74E-05,2.72E-05,8.56E-07,2.32E-05,3.74E-05,0.18864819,35.47498428,-100.16,86.81,0.31284728,0.002270095,0.306195489,0.316479546,0.004164385,0.005327947,0.00031732,0.022730438,0.003304489,0.019473095,5.20E-08,0.186846809,-0.412452281,0.012799193,-0.450636469,-0.402657658,33.77363636,0.01211515,33.75,33.79,0.153846154,-1.23E-05,0,1,0
0,0.039670489,0.007065302,0.008256642,0.063300924,0.03967047,0.007065299,0.008256638,0.063300894,2.73E-05,4.86E-06,5.68E-06,4.36E-05,2.73E-05,4.86E-06,5.68E-06,4.36E-05,-0.442986425,81.40711429,-377.95,337.06,0.303652029,0.006284746,0.298164191,0.324421455,0.022730436,0.028301295,0.002406568,0.106485836,0.017172983,0.081803302,4.06E-08,0.743334689,-0.472845356,0.005226198,-0.477275357,-0.452054953,33.78027027,0.012553271,33.75,33.81,0.067873303,-2.28E-06,0,1,0
0,0.035554874,0.005339581,0.022705766,0.050915961,0.035554857,0.005339578,0.022705756,0.050915937,2.45E-05,3.67E-06,1.56E-05,3.50E-05,2.45E-05,3.67E-06,1.56E-05,3.50E-05,-0.053827021,41.15481894,-143.51,190.65,0.301437388,0.002170972,0.297688867,0.312724822,0.008439992,0.00734682,0.001358914,0.032516509,0.006102322,0.026933278,3.79E-08,0.229206847,-0.469102221,0.003359608,-0.474328787,-0.464790817,33.78509091,0.012702573,33.77,33.81,0.13566987,-0.000230913,0,1,0
0,0.030072765,0.001079784,0.027522141,0.032338516,0.03007275,0.001079784,0.027522128,0.0323385,2.07E-05,7.43E-07,1.89E-05,2.23E-05,2.07E-05,7.43E-07,1.89E-05,2.23E-05,0.400220588,30.97062846,-75.5,69.7,0.296840779,0.00279473,0.291485404,0.301513059,0.001418131,0.001765597,2.31E-05,0.00731437,0.001208282,0.006414353,6.92E-08,0.059482369,-0.483232999,0.012891325,-0.506741906,-0.465452094,33.7854955,0.011289694,33.77,33.81,0.140271493,0.000135311,0,1,0
0,0.027822581,0.000823876,0.026146034,0.030274355,0.027822567,0.000823876,0.026146022,0.030274341,1.91E-05,5.67E-07,1.80E-05,2.08E-05,1.91E-05,5.67E-07,1.80E-05,2.08E-05,-0.18566987,30.90023972,-79.3,90.23,0.287570816,0.002800261,0.282308423,0.292766982,0.00192311,0.001177217,8.69E-05,0.005142772,0.001850003,0.006522467,7.91E-08,0.042532122,-0.526307067,0.012521287,-0.547140585,-0.507113338,33.79727273,0.011029637,33.77,33.81,0.140192199,-1.30E-05,0,1,0
0,0.027782107,0.003909914,0.002752214,0.057108443,0.027782094,0.003909912,0.002752213,0.057108415,1.91E-05,2.69E-06,1.89E-06,3.93E-05,1.91E-05,2.69E-06,1.89E-06,3.93E-05,1.523897059,51.90861925,-236.9,439.83,0.281812814,0.004293222,0.276690055,0.310257947,0.016776883,0.034663506,0.000104031,0.183758259,0.026122672,0.12525102,4.08E-08,1.037020265,-0.56834269,0.025464917,-0.65384023,-0.547398119,33.78927928,0.010019055,33.77,33.81,0.14479638,-9.16E-05,0,1,0
0,0.037554179,0.005901249,0.006880535,0.05848455,0.037554162,0.005901246,0.006880532,0.058484522,2.58E-05,4.06E-06,4.73E-06,4.02E-05,2.58E-05,4.06E-06,4.73E-06,4.02E-05,-1.112126697,176.4695893,-1101.54,1330.79,0.289540378,0.005207555,0.274427076,0.308735693,0.077097392,0.067578142,0.003585128,0.203370681,0.047386945,0.151543438,2.39E-08,1.163138238,-0.59185875,0.074343478,-0.702954999,-0.506603727,33.77672727,0.012143767,33.75,33.81,0.126696833,-0.00013101,0,1,0
0,0.03276612,0.003154855,0.01376107,0.052980121,0.032766104,0.003154853,0.013761064,0.052980096,2.25E-05,2.17E-06,9.47E-06,3.65E-05,2.25E-05,2.17E-06,9.47E-06,3.65E-05,-0.231842849,65.31376054,-377.93,348.28,0.282153635,0.007042524,0.271174566,0.300621011,0.037916438,0.035301471,0.00161147,0.139941781,0.028686275,0.115765551,3.00E-08,1.11628048,-0.587423219,0.03815919,-0.635446835,-0.539779126,33.75774775,0.013468996,33.73,33.79,0.149236857,-0.000147069,0,1,0
0,0.034225214,0.004698355,0.017201338,0.059860657,0.034225198,0.004698353,0.01720133,0.059860628,2.35E-05,3.23E-06,1.18E-05,4.12E-05,2.35E-05,3.23E-06,1.18E-05,4.12E-05,-0.376414027,57.98830686,-323.87,238.14,0.278965807,0.006477972,0.27095924,0.292652498,0.02437762,0.020311834,0.000948195,0.077271235,0.017935264,0.067682539,5.33E-08,0.411455523,-0.588474903,0.019396408,-0.611994113,-0.52646079,33.75327273,0.014654139,33.73,33.79,0.153846154,-0.000380858,0,1,0
0,0.03662017,0.008362182,0.008944696,0.055044282,0.036620153,0.008362178,0.008944692,0.055044256,2.52E-05,5.75E-06,6.15E-06,3.79E-05,2.52E-05,5.75E-06,6.15E-06,3.79E-05,0.128914641,93.28350043,-364.97,554.21,0.284317218,0.005918277,0.272947363,0.297186154,0.01840213,0.010357339,0.002929015,0.037605063,0.01431206,0.040942682,3.02E-08,0.255961453,-0.557809322,0.028813967,-0.596393764,-0.508297043,33.71648649,0.020909442,33.66,33.75,0.153759186,-0.000344682,0,1,0
0,0.04062707,0.00121204,0.033714623,0.050227907,0.040627051,0.001212039,0.033714607,0.050227884,2.80E-05,8.34E-07,2.32E-05,3.46E-05,2.80E-05,8.34E-07,2.32E-05,3.46E-05,0.53668552,79.92065701,-226.61,450.82,0.282441319,0.001383013,0.278487281,0.285476345,0.005898912,0.004673606,5.29E-05,0.023352823,0.005358877,0.01802649,5.39E-08,0.104409538,-0.554081862,0.007644798,-0.56761649,-0.542919541,33.67627273,0.018183864,33.65,33.71,0.095022624,-0.000290918,0,1,0
0,0.029128377,0.006141826,0.000688054,0.071557567,0.029122143,0.006171247,-0.002752213,0.071557533,2.00E-05,4.25E-06,-1.89E-06,4.92E-05,2.00E-05,4.25E-06,-1.89E-06,4.92E-05,-0.547235726,83.40816393,-506.43,580.07,0.268600367,0.007397373,0.259032044,0.286156768,0.012105857,0.01122249,0.000477727,0.044441048,0.00808817,0.033518315,3.75E-08,0.226045508,-0.623901471,0.023124454,-0.651988757,-0.569020523,33.66648649,0.013599725,33.65,33.71,0.153759186,-1.05E-05,0,1,0
0,0.028442918,0.000998015,0.024081873,0.030274355,0.028442905,0.000998015,0.024081862,0.030274341,1.96E-05,6.87E-07,1.66E-05,2.08E-05,1.96E-05,6.87E-07,1.66E-05,2.08E-05,-0.195769231,22.0607225,-49.87,33.05,0.2594838,0.001592207,0.255519612,0.263041724,0.003879182,0.002755801,0.000130177,0.00973786,0.002921719,0.010303612,4.69E-08,0.068242239,-0.657809896,0.007092872,-0.676379472,-0.652186802,33.66072727,0.009506848,33.65,33.68,0.153846154,-0.000108559,0,1,0
0,0.025653344,0.004222828,0.015825231,0.049539854,0.025653332,0.004222826,0.015825224,0.04953983,1.77E-05,2.91E-06,1.09E-05,3.41E-05,1.77E-05,2.91E-06,1.09E-05,3.41E-05,-0.253048643,31.06935002,-265.59,135.16,0.252751293,0.00190585,0.246609349,0.259353653,0.006966964,0.007747986,1.66E-05,0.030527301,0.006863095,0.033534201,4.06E-08,0.31697422,-0.691672884,0.009241122,-0.70607092,-0.676870612,33.65072072,0.009652681,33.63,33.68,0.158371041,-3.19E-05,0,1,0
0,0.026902581,0.00108575,0.024769927,0.033026569,0.026902569,0.001085749,0.024769915,0.033026554,1.85E-05,7.47E-07,1.70E-05,2.27E-05,1.85E-05,7.47E-07,1.70E-05,2.27E-05,0.475686829,27.69214503,-78.15,120.61,0.259513647,0.001239108,0.255450215,0.262381611,0.005616969,0.006861662,0.00021434,0.027700777,0.002477907,0.009787576,5.60E-08,0.065923767,-0.659499058,0.009200387,-0.688134698,-0.65315682,33.64472727,0.01101314,33.63,33.66,0.149236857,-9.78E-05,0,1,0
0,0.026157709,0.002222179,0.02339382,0.031650462,0.026157697,0.002222178,0.023393809,0.031650447,1.80E-05,1.53E-06,1.61E-05,2.18E-05,1.80E-05,1.53E-06,1.61E-05,2.18E-05,0.004394796,27.11587278,-70.88,88.7,0.258042111,0.001127048,0.254648762,0.260256673,0.002392594,0.00281517,3.90E-05,0.010249897,0.001947225,0.008245229,6.68E-08,0.04677424,-0.663023112,0.002852181,-0.67003081,-0.657738856,33.64153153,0.013027912,33.61,33.66,0.14479638,-0.000129168,0,1,0
0,0.026285977,0.00220019,0.017889392,0.04678764,0.026285965,0.002200189,0.017889383,0.046787618,1.81E-05,1.51E-06,1.23E-05,3.22E-05,1.81E-05,1.51E-06,1.23E-05,3.22E-05,0.005076314,38.00871715,-141.98,188.65,0.256831452,0.001459237,0.251183738,0.260020039,0.003170151,0.002556032,3.92E-05,0.008814946,0.002292684,0.009396575,5.70E-08,0.055061271,-0.669134436,0.001890801,-0.670797552,-0.664661243,33.62927928,0.012281364,33.61,33.66,0.140192199,-0.000170235,0,1,0
0,0.025022109,0.001845146,0.017889392,0.03509073,0.025022098,0.001845145,0.017889383,0.035090713,1.72E-05,1.27E-06,1.23E-05,2.41E-05,1.72E-05,1.27E-06,1.23E-05,2.41E-05,-0.035605204,34.17211891,-133.47,144.13,0.256842297,0.001646912,0.252377409,0.260227858,0.008193159,0.005431214,2.70E-05,0.020217439,0.006551443,0.0258897,4.72E-08,0.204335587,-0.67426312,0.004412587,-0.680940683,-0.664690213,33.62745455,0.012536228,33.61,33.66,0.140271493,8.66E-06,0,1,0
0,0.022907357,0.003922721,0.015825231,0.041283211,0.022907346,0.003922719,0.015825224,0.041283192,1.58E-05,2.70E-06,1.09E-05,2.84E-05,1.58E-05,2.70E-06,1.09E-05,2.84E-05,-0.92071792,45.56316005,-146.15,228.52,0.2504985,0.003636684,0.241978647,0.257105503,0.011674465,0.006852435,0.001753549,0.029097649,0.009593491,0.031928568,5.05E-08,0.196777668,-0.706725309,0.01382231,-0.725115522,-0.681485521,33.6127027,0.011542787,33.59,33.63,0.09044658,-0.000103896,0,1,0
0,0.020229085,0.003136901,0.014449124,0.035778783,0.020229075,0.003136899,0.014449117,0.035778766,1.39E-05,2.16E-06,9.94E-06,2.46E-05,1.39E-05,2.16E-06,9.94E-06,2.46E-05,1.143184389,39.35122055,-124.34,181.05,0.248623997,0.001731864,0.244575821,0.254166858,0.006489716,0.008141987,0.000118497,0.034983041,0.005852871,0.023675645,3.96E-08,0.17023488,-0.710871912,0.005428271,-0.728203429,-0.703727111,33.59763636,0.012352937,33.57,33.61,0.149321267,-5.70E-05,0,1,0
0,0.032449818,0.004158428,0.02339382,0.044723479,0.032449803,0.004158426,0.023393809,0.044723458,2.23E-05,2.86E-06,1.61E-05,3.08E-05,2.23E-05,2.86E-06,1.61E-05,3.08E-05,-0.265950226,22.88265271,-61.52,105.82,0.238997237,0.002873783,0.23294342,0.247246921,0.013606357,0.011090143,0.000518465,0.036308924,0.008907104,0.032560909,5.23E-08,0.250078032,-0.76138488,0.014813434,-0.785051033,-0.729714648,33.59108108,0.015845615,33.55,33.61,0.140271493,2.05E-05,0,1,0
0,0.031229078,0.002592894,0.018577445,0.033714623,0.031229063,0.002592893,0.018577436,0.033714607,2.15E-05,1.78E-06,1.28E-05,2.32E-05,2.15E-05,1.78E-06,1.28E-05,2.32E-05,0.09736009,17.64217736,-42.02,40.09,0.235945606,0.001704251,0.231793121,0.240586165,0.003528841,0.001912356,0.000325818,0.00755343,0.002661928,0.009426479,4.94E-08,0.068500791,-0.765979094,0.004874931,-0.773290146,-0.755855251,33.56781818,0.013306309,33.53,33.59,0.149236857,-0.000246872,0,1,0
0,0.024492837,0.002912794,0.012384963,0.042659319,0.024492826,0.002912793,0.012384958,0.042659298,1.69E-05,2.00E-06,8.52E-06,2.94E-05,1.69E-05,2.00E-06,8.52E-06,2.94E-05,0.692217195,37.61541382,-95.73,149.6,0.237594468,0.003297935,0.231574908,0.247510745,0.010213959,0.008450309,0.000118977,0.03083608,0.010216737,0.032359547,4.62E-08,0.228455007,-0.764750713,0.006462112,-0.77332361,-0.75536699,33.55684685,0.014825227,33.53,33.57,0.14479638,-0.000137768,0,1,0
0,0.024672634,0.004251619,0.016513285,0.041283211,0.024672623,0.004251617,0.016513277,0.041283192,1.70E-05,2.93E-06,1.14E-05,2.84E-05,1.70E-05,2.93E-06,1.14E-05,2.84E-05,-0.76732052,51.97518395,-178.23,200.88,0.233909365,0.002616745,0.228739336,0.241888194,0.009972731,0.006934074,0.001375241,0.029229546,0.005533286,0.017500644,5.88E-08,0.105296626,-0.781734666,0.005172277,-0.788274673,-0.766617166,33.55836364,0.01510733,33.53,33.59,0.09044658,0.000178166,0,1,0
0,0.021560827,0.003482292,0.012384963,0.039907104,0.021560816,0.00348229,0.012384958,0.039907086,1.48E-05,2.40E-06,8.52E-06,2.75E-05,1.48E-05,2.40E-06,8.52E-06,2.75E-05,-0.517613122,121.802851,-768.25,819.37,0.234040862,0.003244924,0.228060189,0.249289872,0.023955753,0.022070355,0.000358335,0.085803669,0.018871569,0.062430815,3.53E-08,0.43475355,-0.794873168,0.014520447,-0.815436752,-0.773901933,33.57162162,0.011743546,33.55,33.59,0.063348416,-6.53E-05,0,1,0
0,0.039984851,0.008035296,0.001376107,0.087382798,0.039664518,0.009490981,-0.035778766,0.087382756,2.73E-05,6.53E-06,-2.46E-05,6.01E-05,2.73E-05,6.53E-06,-2.46E-05,6.01E-05,5.829717354,152.7096023,-668.58,798.9,0.525359048,0.018269599,0.487444667,0.564868393,0.319719564,0.105845964,0.165950976,0.538780056,0.250979876,0.440264044,2.45E-08,2.352959618,0.251517925,0.134039228,0.061267316,0.421260119,32.70018182,0.01853654,32.66,32.73,0.122102883,0.000160855,0,0,1
0,0.039880641,0.009229312,0.003440268,0.087382798,0.039503905,0.010727796,-0.04953983,0.087382756,2.72E-05,7.38E-06,-3.41E-05,6.01E-05,2.72E-05,7.38E-06,-3.41E-05,6.01E-05,-1.299117647,120.7677968,-560.99,295.56,0.602596304,0.043727228,0.534674874,0.683847596,0.380445443,0.13778489,0.120751226,0.731850538,0.295724258,0.527116843,3.37E-08,2.313817281,0.545661436,0.233041332,0.269274254,0.851869135,32.71792793,0.015252654,32.68,32.75,0.167420814,0.000164619,0,0,1
0,0.038569136,0.008372397,0.000688054,0.087382798,0.03845548,0.008879744,-0.015825224,0.087382756,2.65E-05,6.11E-06,-1.09E-05,6.01E-05,2.65E-05,6.11E-06,-1.09E-05,6.01E-05,-0.196613906,141.7932418,-579.86,427.78,0.698954719,0.037460837,0.628174804,0.781628378,0.56392382,0.150155124,0.286894973,0.863066138,0.440193508,0.612620771,2.92E-08,2.761573447,0.807432672,0.05955702,0.765868588,1.011540317,32.73363636,0.020833857,32.68,32.77,0.04522329,0.000440367,0,0,1
0,0.039181691,0.008046654,0.000688054,0.075685888,0.039094498,0.008460038,-0.017889383,0.075685852,2.69E-05,5.82E-06,-1.23E-05,5.21E-05,2.69E-05,5.82E-06,-1.23E-05,5.21E-05,-3.738704751,183.4474045,-717.85,1024.11,0.749560063,0.031375349,0.702324429,0.824308371,0.366560316,0.117489531,0.150654042,0.557835215,0.269052591,0.507472154,4.21E-08,3.358723541,1.2372889,0.078893904,1.021645859,1.445423443,32.73918919,0.011321281,32.73,32.77,0.085972851,-2.07E-05,0,0,1
0,0.037307445,0.011520372,0,0.087382798,0.03681863,0.012998135,-0.062612841,0.087382756,2.53E-05,8.94E-06,-4.31E-05,6.01E-05,2.53E-05,8.94E-06,-4.31E-05,6.01E-05,2.684841629,148.3703422,-526.32,634.79,0.803549163,0.025130655,0.706467626,0.866188719,0.738810011,0.39494516,0.079157952,1.320825802,0.62958391,1.025065578,2.35E-08,7.662374852,1.113658651,0.355514128,0.703961851,1.601259029,32.74345455,0.014297893,32.71,32.77,0.113122172,0.000161576,0,0,1
0,0.036540696,0.013925777,0,0.087382798,0.036044658,0.015163472,-0.020641596,0.087382756,2.48E-05,1.04E-05,-1.42E-05,6.01E-05,2.48E-05,1.04E-05,-1.42E-05,6.01E-05,0.828315432,136.9393754,-664.36,654.04,0.765680374,0.038223131,0.710712104,0.844164613,0.760857608,0.229200579,0.351160516,1.131778762,0.559218132,1.032466708,3.51E-08,4.67622716,0.917205781,0.086699484,0.83242116,1.161759204,32.71432432,0.019710592,32.68,32.75,0.09044658,-0.000393296,0,0,1
0,0.036058986,0.012517981,0,0.087382798,0.035714942,0.013468179,-0.021329649,0.087382756,2.46E-05,9.27E-06,-1.47E-05,6.01E-05,2.46E-05,9.27E-06,-1.47E-05,6.01E-05,0.196097285,178.9000242,-556.34,1029.67,0.763252801,0.023501764,0.715465279,0.802528663,0.487498604,0.130802456,0.27340844,0.874504158,0.387127774,0.613960641,3.39E-08,2.422456724,1.179328403,0.064922739,0.933459629,1.255152225,32.67381818,0.018634368,32.65,32.71,0.099547511,-0.000352726,0,0,1
0,0.039410523,0.009884141,0,0.087382798,0.038882789,0.011790364,-0.033026554,0.087382756,2.68E-05,8.11E-06,-2.27E-05,6.01E-05,2.68E-05,8.11E-06,-2.27E-05,6.01E-05,-1.650570944,127.7373793,-618.26,389.82,0.739987645,0.028379955,0.675568864,0.811177073,0.763615405,0.321926667,0.128481517,1.256361971,0.543783878,1.150649224,4.34E-08,5.8365806,0.796161443,0.361610054,0.386039522,1.485561754,32.65684685,0.010652748,32.63,32.68,0.13566987,-0.000129607,0,0,1
0,0.033375266,0.012907721,0.000688054,0.087382798,0.033205572,0.013338156,-0.008256638,0.087382756,2.28E-05,9.18E-06,-5.68E-06,6.01E-05,2.28E-05,9.18E-06,-5.68E-06,6.01E-05,1.318863122,128.7750562,-680.77,527.03,0.791746958,0.024602874,0.710959618,0.840054564,0.664174129,0.208845199,0.286074081,0.989566296,0.540952122,0.871792788,2.38E-08,5.408345871,1.133982499,0.230334118,0.836046798,1.491142829,32.63127273,0.016130665,32.61,32.66,0.063348416,-0.000202782,0,0,1
0,0.034090137,0.006830416,0.002064161,0.077750048,0.034090121,0.006830413,0.00206416,0.077750011,2.35E-05,4.70E-06,1.42E-06,5.35E-05,2.35E-05,4.70E-06,1.42E-06,5.35E-05,-1.130152629,111.6428041,-569.14,436.73,0.888625278,0.025829942,0.786723184,0.941036717,0.422013681,0.330607859,0.032724413,1.005504429,0.340596325,0.909762715,4.86E-08,5.250802446,1.822376134,0.311220449,1.100848708,2.214940117,32.59702703,0.023195005,32.55,32.63,0.149236857,-0.000627589,0,0,1
0,0.038373772,0.014240427,0,0.087382798,0.037842926,0.015596395,-0.021329649,0.087382756,2.60E-05,1.07E-05,-1.47E-05,6.01E-05,2.60E-05,1.07E-05,-1.47E-05,6.01E-05,2.842726244,168.0043587,-669.51,502.06,0.876283398,0.026968743,0.82101039,0.919861302,0.85425039,0.10830539,0.677380768,1.065803342,0.652277181,0.888959463,1.95E-08,3.835470785,1.333389169,0.129930336,1.163138738,1.518486038,32.53363636,0.022104186,32.5,32.57,0.162895928,-0.000336136,0,0,1
0,0.035798242,0.01241848,0.000688054,0.087382798,0.03495606,0.014622081,-0.041283192,0.087382756,2.41E-05,1.01E-05,-2.84E-05,6.01E-05,2.41E-05,1.01E-05,-2.84E-05,6.01E-05,-2.612211538,111.2603561,-337.49,323.92,0.832071945,0.02809735,0.757657091,0.894129892,0.660967519,0.101489991,0.426635282,0.906145885,0.476925848,0.768689732,3.32E-08,4.109860022,1.322929161,0.085648956,1.215979777,1.489469658,32.51846847,0.020008926,32.49,32.57,0.099547511,-0.000199368,0,0,1
0,0.022412332,0.001086978,0.016513285,0.030962409,0.022412321,0.001086977,0.016513277,0.030962394,1.54E-05,7.48E-07,1.14E-05,2.13E-05,1.54E-05,7.48E-07,1.14E-05,2.13E-05,2.736579989,91.29757135,-759.9,462.5,0.764695752,0.032741464,0.719758449,0.869369861,0.14778255,0.159156604,0.008257608,0.648859771,0.126183001,0.419375518,5.80E-08,3.234920525,1.525597562,0.056569464,1.446603586,1.607403821,32.47890909,0.024209144,32.43,32.53,0.108535896,-0.000607443,0,0,1
0,0.022982856,0.001109992,0.017889392,0.02545798,0.022982845,0.001109991,0.017889383,0.025457968,1.58E-05,7.64E-07,1.23E-05,1.75E-05,1.58E-05,7.64E-07,1.23E-05,1.75E-05,-1.21449095,83.24251516,-606.36,223.76,0.781998637,0.024116947,0.746816531,0.860556533,0.120651419,0.135426517,0.006882894,0.611498036,0.057482733,0.158751321,7.76E-08,0.860234711,1.632509371,0.047928582,1.508535921,1.709610044,32.37810811,0.041362243,32.31,32.45,0.054298643,-0.001217269,0,0,1
0,0.021632869,0.00146281,0.017201338,0.027522141,0.021632859,0.001462809,0.01720133,0.027522128,1.49E-05,1.01E-06,1.18E-05,1.89E-05,1.49E-05,1.01E-06,1.18E-05,1.89E-05,-0.093900509,96.15646462,-496.5,339.81,0.760121164,0.013061633,0.736980038,0.785502177,0.150813336,0.068862845,0.031032797,0.307858219,0.120462272,0.26934465,4.33E-08,1.681887681,1.501630719,0.069119421,1.407999887,1.636693778,32.27756757,0.032885721,32.21,32.33,0.117580554,-0.000923131,0,0,1
0,0.021749963,0.000684986,0.019953552,0.024081873,0.021749953,0.000684986,0.019953543,0.024081862,1.50E-05,4.71E-07,1.37E-05,1.66E-05,1.50E-05,4.71E-07,1.37E-05,1.66E-05,-3.237183258,46.48492383,-111.35,248.42,0.762162062,0.014277857,0.735949234,0.795356361,0.119808991,0.043898488,0.033814304,0.221654521,0.098772914,0.210037802,4.53E-08,1.160854754,1.542056971,0.03796174,1.483384654,1.594641362,32.19009091,0.024881371,32.16,32.23,0.054298643,-0.000641751,0,0,1
0,0.021633212,0.002144572,0.009632749,0.033026569,0.021633202,0.002144571,0.009632745,0.033026554,1.49E-05,1.48E-06,6.63E-06,2.27E-05,1.49E-05,1.48E-06,6.63E-06,2.27E-05,1.129327304,85.84819617,-324.12,233.72,0.795443137,0.017524378,0.768154758,0.84094081,0.275920691,0.144036616,0.081297432,0.674730859,0.243864689,0.480279339,3.66E-08,2.594715364,1.539215457,0.129143506,1.30438031,1.671817947,32.12648649,0.021587811,32.09,32.16,0.076879593,-0.000534749,0,0,1
0,0.021947662,0.001756158,0.014449124,0.041283211,0.021947652,0.001756157,0.014449117,0.041283192,1.51E-05,1.21E-06,9.94E-06,2.84E-05,1.51E-05,1.21E-06,9.94E-06,2.84E-05,-0.733993213,81.76891434,-292.12,335.06,0.83638385,0.030216939,0.798576042,0.932924763,0.306739199,0.257613217,0.057976939,1.000492243,0.195736184,0.533188,5.79E-08,4.217477594,1.696818731,0.134334787,1.345403605,1.804370239,32.08272727,0.022029282,32.03,32.11,0.099547511,-0.000574893,0,0,1
0,0.01334855,0.006116965,0,0.02339382,0.013087021,0.006658132,-0.009632745,0.023393809,9.00E-06,4.58E-06,-6.63E-06,1.61E-05,9.00E-06,4.58E-06,-6.63E-06,1.61E-05,1.785328054,102.9152172,-586.03,397.85,0.919336751,0.090149969,0.786161075,1.045223853,0.378342855,0.299126049,0.054252584,0.948646359,0.287517125,0.78338563,4.12E-08,5.134278703,2.00753301,0.260238491,1.714991192,2.368464283,32.04918919,0.017713187,32,32.07,0.122171946,-0.000359863,0,0,1
0,0.012427724,0.001811077,0.004816375,0.02545798,0.012427718,0.001811076,0.004816372,0.025457968,8.55E-06,1.25E-06,3.31E-06,1.75E-05,8.55E-06,1.25E-06,3.31E-06,1.75E-05,0.005596382,52.08367114,-163.18,139.72,0.873497751,0.024982482,0.833928683,0.931280451,0.119612961,0.088020838,0.01844023,0.377916007,0.091545904,0.244845445,6.71E-08,1.539383713,2.055195736,0.12314851,1.936204965,2.335019712,32.02372727,0.017982774,31.99,32.05,0.058790277,0.000347091,0,0,1
0,0.010849296,0.001112119,0.008256642,0.014449124,0.010849291,0.001112119,0.008256638,0.014449117,7.46E-06,7.65E-07,5.68E-06,9.94E-06,7.46E-06,7.65E-07,5.68E-06,9.94E-06,-0.420752262,21.36187481,-75.35,68.01,0.793125684,0.022898751,0.759897186,0.841202027,0.050054021,0.026555904,0.014341443,0.1055371,0.035956132,0.090682547,6.24E-08,0.581989497,1.754393871,0.093192553,1.627695405,1.933738948,32.04405405,0.011883699,32.03,32.07,0.045248869,7.42E-05,0,0,1
0,0.010270989,0.001180312,0.003440268,0.01376107,0.010270984,0.001180312,0.003440266,0.013761064,7.07E-06,8.12E-07,2.37E-06,9.47E-06,7.07E-06,8.12E-07,2.37E-06,9.47E-06,0.126014698,31.61928879,-98.26,127.17,0.768759279,0.025508117,0.735852208,0.809966527,0.089451395,0.088889858,0.008974246,0.299344219,0.067021516,0.186710103,4.87E-08,1.069449833,1.602705373,0.056069731,1.542790909,1.724698249,32.07254545,0.016205295,32.05,32.11,0.122102883,0.000296463,0,0,1
0,0.008695627,0.001219762,0.004816375,0.013073017,0.008695623,0.001219761,0.004816372,0.013073011,5.98E-06,8.39E-07,3.31E-06,8.99E-06,5.98E-06,8.39E-07,3.31E-06,8.99E-06,-0.02574095,26.14617994,-105.63,80.76,0.779660302,0.006495446,0.767319806,0.79790863,0.049695266,0.023905696,0.00692531,0.107266421,0.042798861,0.097332686,6.92E-08,0.448852636,1.692704739,0.019748193,1.659185379,1.729203556,32.0927027,0.020531055,32.05,32.13,0.076923077,0.000516673,0,0,1
0,0.006985611,0.002384429,0,0.01376107,0.006826826,0.002806894,-0.006192479,0.013761064,4.70E-06,1.93E-06,-4.26E-06,9.47E-06,4.70E-06,1.93E-06,-4.26E-06,9.47E-06,-0.020135747,48.53282749,-279.43,253.32,0.869509242,0.088422063,0.760450331,1.061572849,0.243971026,0.189057685,0.014428586,0.715565957,0.210404088,0.466793028,4.97E-08,2.630404825,1.912311628,0.254530598,1.650268196,2.366919636,32.13218182,0.014608952,32.11,32.16,0.122171946,0.000263463,0,0,1
0,0.020616727,0.00324155,0.001376107,0.040595158,0.020616717,0.003241549,0.001376106,0.040595139,1.42E-05,2.23E-06,9.47E-07,2.79E-05,1.42E-05,2.23E-06,9.47E-07,2.79E-05,-0.562108536,50.82263492,-323.98,362.9,0.248803792,0.00210595,0.241974405,0.252821278,0.009856522,0.009612389,0.000132978,0.031523112,0.007933365,0.035153223,5.63E-08,0.307193881,-0.712869062,0.009999607,-0.732326331,-0.699556601,33.52981818,0.010267497,33.5,33.55,0.131147541,7.80E-05,1,0,0
0,0.024039065,0.000226243,0.022705766,0.024769927,0.024039053,0.000226243,0.022705756,0.024769915,1.65E-05,1.56E-07,1.56E-05,1.70E-05,1.65E-05,1.56E-07,1.56E-05,1.70E-05,0.148246606,36.98657875,-211.27,149.2,0.24403543,0.002804004,0.239307981,0.249303098,0.005098586,0.002741035,0.000775786,0.012371171,0.003513326,0.013789877,4.52E-08,0.106474858,-0.730033153,0.011873145,-0.746775169,-0.717236658,33.5309009,0.015278174,33.5,33.55,0.135746606,-0.000227624,1,0,0
0,0.023709048,0.000517181,0.022017713,0.02545798,0.023709037,0.000517181,0.022017702,0.025457968,1.63E-05,3.56E-07,1.51E-05,1.75E-05,1.63E-05,3.56E-07,1.51E-05,1.75E-05,0.427173544,35.73109252,-217.83,126.26,0.243074673,0.00357198,0.23677268,0.250420544,0.006061647,0.005062485,0.000173914,0.020133558,0.004658415,0.017884703,4.85E-08,0.128048347,-0.735434675,0.013272377,-0.748041301,-0.711992725,33.52490909,0.017773599,33.49,33.57,0.117580554,0.00018538,1,0,0
0,0.010028925,0.010120431,0,0.066741192,0.009863912,0.010281318,-0.026146022,0.06674116,6.79E-06,7.07E-06,-1.80E-05,4.59E-05,6.79E-06,7.07E-06,-1.80E-05,4.59E-05,1.4035181,56.47589425,-343.01,271.63,0.239944279,0.006925576,0.229983465,0.251905016,0.017095154,0.008322851,0.002622594,0.041452021,0.017655214,0.062892877,4.82E-08,0.56672883,-0.760939322,0.028944071,-0.793183012,-0.712043962,33.53,0.010397505,33.5,33.55,0.122171946,-3.51E-05,1,0,0
0,0.024812736,0.001073931,0.015137178,0.041283211,0.024812724,0.001073931,0.01513717,0.041283192,1.71E-05,7.39E-07,1.04E-05,2.84E-05,1.71E-05,7.39E-07,1.04E-05,2.84E-05,-1.618467195,48.88858638,-234.43,251.38,0.250167166,0.002518094,0.243754959,0.2545257,0.013065583,0.013198429,0.00116506,0.053244092,0.005879375,0.018079174,5.77E-08,0.090865608,-0.709797394,0.021990776,-0.766746988,-0.69056818,33.50827273,0.015889338,33.49,33.53,0.131221719,-0.000170548,1,0,0
0,0.024877994,0.000252482,0.024081873,0.02545798,0.024877982,0.000252482,0.024081862,0.025457968,1.71E-05,1.74E-07,1.66E-05,1.75E-05,1.71E-05,1.74E-07,1.66E-05,1.75E-05,0.526986998,32.99578143,-88.88,51.93,0.253315288,0.001092532,0.250493693,0.255574669,0.002214653,0.001653539,7.83E-05,0.0063925,0.001515842,0.006120285,7.19E-08,0.04125817,-0.684471987,0.002923447,-0.690460472,-0.681057247,33.49423423,0.006784926,33.47,33.5,0.13566987,-8.28E-05,1,0,0
0,0.03426024,0.005704762,0.022017713,0.044035426,0.034260224,0.00570476,0.022017702,0.044035405,2.36E-05,3.93E-06,1.51E-05,3.03E-05,2.36E-05,3.93E-06,1.51E-05,3.03E-05,-0.718156109,43.02788845,-150.12,370.9,0.255460953,0.003252043,0.245298217,0.260915868,0.016917985,0.01505132,0.001045342,0.049433686,0.012766729,0.045700714,4.57E-08,0.354954241,-0.68932963,0.014867901,-0.707698245,-0.664500163,33.49145455,0.008825208,33.47,33.5,0.153846154,-7.50E-05,1,0,0
0,0.037552623,0.000450887,0.035778783,0.039907104,0.037552605,0.000450886,0.035778766,0.039907086,2.58E-05,3.10E-07,2.46E-05,2.75E-05,2.58E-05,3.10E-07,2.46E-05,2.75E-05,0.218405879,38.67565844,-186.88,112.34,0.258610458,0.001376235,0.255597514,0.262420056,0.004165946,0.005186536,4.50E-05,0.018109329,0.003500352,0.014964945,7.00E-08,0.096321761,-0.662042475,0.003050447,-0.665351572,-0.655630863,33.47162162,0.014490789,33.45,33.49,0.140192199,-0.000247104,1,0,0
0,0.038306057,0.001749081,0.02339382,0.048163747,0.038306039,0.00174908,0.023393809,0.048163724,2.64E-05,1.20E-06,1.61E-05,3.31E-05,2.64E-05,1.20E-06,1.61E-05,3.31E-05,0.386589367,55.28183357,-313.92,301.06,0.259836595,0.001871556,0.249620183,0.263872333,0.009872574,0.01167933,0.000190199,0.036776973,0.009574715,0.031489076,4.05E-08,0.180957863,-0.662086998,0.011614508,-0.683289163,-0.651643775,33.44581818,0.016425137,33.41,33.47,0.153846154,-0.000258323,1,0,0
0,0.039457732,0.00032913,0.039219051,0.040595158,0.039457713,0.00032913,0.039219032,0.040595139,2.71E-05,2.26E-07,2.70E-05,2.79E-05,2.71E-05,2.26E-07,2.70E-05,2.79E-05,-0.627292256,42.16502848,-206.25,129.43,0.260568669,0.001060159,0.257746213,0.263419121,0.007404028,0.008087964,0.000276357,0.034657826,0.003572775,0.014704128,8.24E-08,0.092036105,-0.656445311,0.009212187,-0.681520942,-0.648209251,33.43324324,0.01356746,33.41,33.47,0.131147541,-0.000124781,1,0,0
0,0.039291437,0.00103989,0.026834087,0.052292068,0.039291418,0.00103989,0.026834075,0.052292043,2.70E-05,7.15E-07,1.85E-05,3.60E-05,2.70E-05,7.15E-07,1.85E-05,3.60E-05,0.1525,47.30828373,-232.76,150.55,0.261592106,0.001581401,0.258227344,0.267408028,0.003509845,0.003289936,0.000156007,0.013664054,0.002804667,0.014479183,5.83E-08,0.137012228,-0.647497583,0.002234377,-0.652047096,-0.644731867,33.41727273,0.013410246,33.39,33.45,0.149321267,-0.000131281,1,0,0
0,0.039214381,8.00E-05,0.037842944,0.039907104,0.039214362,8.00E-05,0.037842926,0.039907086,2.70E-05,5.51E-08,2.60E-05,2.75E-05,2.70E-05,5.51E-08,2.60E-05,2.75E-05,0.189519231,26.86472593,-86.49,192.27,0.262131646,0.001154285,0.257419797,0.265305199,0.002218373,0.001719074,6.40E-05,0.006386254,0.001508916,0.006808832,5.57E-08,0.045227305,-0.643876303,0.002576188,-0.647982747,-0.640075596,33.41630631,0.016103714,33.39,33.45,0.149321267,-9.23E-05,1,0,0
0,0.039218273,4.01E-05,0.038530997,0.039907104,0.039218254,4.01E-05,0.038530979,0.039907086,2.70E-05,2.76E-08,2.65E-05,2.75E-05,2.70E-05,2.76E-08,2.65E-05,2.75E-05,-0.21151498,23.21446847,-65.22,43.05,0.261704555,0.00102449,0.258577318,0.264478913,0.002328472,0.002792667,3.65E-05,0.011183655,0.001606278,0.009382951,9.77E-08,0.077578044,-0.645871295,0.003320359,-0.6508205,-0.640124282,33.41309091,0.014061259,33.39,33.43,0.13566987,-8.48E-05,1,0,0