,net_acc_mean,net_acc_std,net_acc_min,net_acc_max,ACC_x_mean,ACC_x_std,ACC_x_min,ACC_x_max,ACC_y_mean,ACC_y_std,ACC_y_min,ACC_y_max,ACC_z_mean,ACC_z_std,ACC_z_min,ACC_z_max,BVP_mean,BVP_std,BVP_min,BVP_max,EDA_mean,EDA_std,EDA_min,EDA_max,EDA_phasic_mean,EDA_phasic_std,EDA_phasic_min,EDA_phasic_max,EDA_smna_mean,EDA_smna_std,EDA_smna_min,EDA_smna_max,EDA_tonic_mean,EDA_tonic_std,EDA_tonic_min,EDA_tonic_max,TEMP_mean,TEMP_std,TEMP_min,TEMP_max,BVP_peak_freq,TEMP_slope,0,1,2
0,0.024565454,0.013849009,0,0.050227907,0.022077567,0.017545281,-0.015825224,0.050227884,1.52E-05,1.21E-05,-1.09E-05,3.46E-05,1.52E-05,1.21E-05,-1.09E-05,3.46E-05,1.869299039,64.36130548,-303.27,200.4,0.409693586,0.007665821,0.394565533,0.433481507,0.029080511,0.015119754,0.003526095,0.065118431,0.019574848,0.056220509,4.11E-08,0.296558473,-0.552382724,0.015033702,-0.574751388,-0.522696842,33.68117117,0.035278525,33.63,33.77,0.149236857,-0.000912425,0,1,0
0,0.024270232,0.008201969,0.006880535,0.055044282,0.02427022,0.008201965,0.006880532,0.055044256,1.67E-05,5.64E-06,4.73E-06,3.79E-05,1.67E-05,5.64E-06,4.73E-06,3.79E-05,-1.032460407,49.03728675,-199.62,178.49,0.389443172,0.005298597,0.378612123,0.399895607,0.025493462,0.021102408,0.00330701,0.082106928,0.020932171,0.066440589,3.55E-08,0.399439894,-0.618346824,0.022727091,-0.649608904,-0.575320007,33.59036036,0.031190433,33.53,33.65,0.07239819,-0.000723236,0,1,0
0,0.026129689,0.00476172,0.01169691,0.0488518,0.026129676,0.004761717,0.011696904,0.048851777,1.80E-05,3.28E-06,8.05E-06,3.36E-05,1.80E-05,3.28E-06,8.05E-06,3.36E-05,0.39084276,44.9771571,-171.9,267.59,0.387223103,0.004819037,0.366182981,0.394187231,0.036857791,0.026951253,0.00047475,0.079362199,0.025893766,0.079808071,2.42E-08,0.612047748,-0.637419224,0.022787107,-0.67470906,-0.608418725,33.56063636,0.021203656,33.5,33.61,0.158371041,-0.000506774,0,1,0
0,0.030395776,0.002488192,0.012384963,0.033714623,0.030395762,0.002488191,0.012384958,0.033714607,2.09E-05,1.71E-06,8.52E-06,2.32E-05,2.09E-05,1.71E-06,8.52E-06,2.32E-05,0.184160543,25.49133059,-121.15,119.85,0.368153507,0.006240241,0.356909673,0.380394462,0.005109857,0.002960004,0.000574848,0.013329132,0.003859576,0.014448306,4.19E-08,0.09720211,-0.671240863,0.019920909,-0.700593776,-0.631390592,33.50054054,0.022654389,33.45,33.53,0.158281515,-0.000587662,0,1,0
0,0.027772767,0.003193788,0.015825231,0.049539854,0.027772754,0.003193786,0.015825224,0.04953983,1.91E-05,2.20E-06,1.09E-05,3.41E-05,1.91E-05,2.20E-06,1.09E-05,3.41E-05,0.165486425,40.9295439,-155.69,232.92,0.351452293,0.00454724,0.341804464,0.360070158,0.009362425,0.007695496,0.000110359,0.025802775,0.00847457,0.027167744,3.53E-08,0.141751756,-0.732922885,0.020579386,-0.760928559,-0.700875761,33.426,0.019963603,33.39,33.47,0.117647059,-0.000531614,0,1,0
0,0.028825167,0.006449789,0.011008856,0.043347372,0.028825153,0.006449786,0.011008851,0.043347352,1.98E-05,4.44E-06,7.57E-06,2.98E-05,1.98E-05,4.44E-06,7.57E-06,2.98E-05,-0.350870548,35.41846447,-150.36,137.38,0.341280904,0.003912812,0.328693464,0.346961008,0.022242764,0.015863572,0.003439353,0.059001128,0.015918335,0.044411085,3.36E-08,0.276822496,-0.780983075,0.013491874,-0.801105084,-0.761018554,33.38675676,0.013960185,33.34,33.41,0.04522329,9.60E-05,0,1,0
0,0.023089488,0.002205161,0.019953552,0.026834087,0.023089478,0.00220516,0.019953543,0.026834075,1.59E-05,1.52E-06,1.37E-05,1.85E-05,1.59E-05,1.52E-06,1.37E-05,1.85E-05,0.179355204,26.2231194,-112.98,118.87,0.329099733,0.006821792,0.319517979,0.340044616,0.005998028,0.0051646,0.000427177,0.016376946,0.004309672,0.016659625,5.58E-08,0.102101008,-0.806348677,0.020860108,-0.834098597,-0.77013094,33.35418182,0.018408586,33.33,33.39,0.14479638,-0.000391588,0,1,0
0,0.02071944,0.000217936,0.020641606,0.021329659,0.02071943,0.000217935,0.020641596,0.021329649,1.43E-05,1.50E-07,1.42E-05,1.47E-05,1.43E-05,1.50E-07,1.42E-05,1.47E-05,-0.26281515,19.95053038,-62.32,101.2,0.313226212,0.003865701,0.305604708,0.320864777,0.001011591,0.000704636,5.92E-05,0.003226145,0.001041325,0.00436802,6.50E-08,0.030198341,-0.855919206,0.013148261,-0.879584802,-0.83441285,33.33576577,0.006784926,33.31,33.34,0.162803844,-4.63E-05,0,1,0
0,0.02061592,0.00123408,0.016513285,0.027522141,0.020615911,0.001234079,0.016513277,0.027522128,1.42E-05,8.49E-07,1.14E-05,1.89E-05,1.42E-05,8.49E-07,1.14E-05,1.89E-05,0.140723982,39.84851072,-210.38,130.95,0.303150747,0.002692317,0.295880319,0.307609265,0.004327322,0.004738369,0.000288877,0.020180129,0.003982644,0.016713709,5.83E-08,0.109583813,-0.894012917,0.00900521,-0.907831916,-0.880001311,33.32563636,0.01004782,33.31,33.34,0.158371041,-0.000165543,0,1,0
0,0.02763967,0.006993219,0.008256642,0.046099586,0.027639657,0.006993216,0.008256638,0.046099564,1.90E-05,4.81E-06,5.68E-06,3.17E-05,1.90E-05,4.81E-06,5.68E-06,3.17E-05,0.055147059,42.79686619,-257.26,122.38,0.298633484,0.002987417,0.292055998,0.304520574,0.005137495,0.003694613,0.000479235,0.012752597,0.003383777,0.015600374,5.89E-08,0.120241528,-0.910514205,0.009353553,-0.928943659,-0.901405284,33.30747748,0.012481949,33.29,33.34,0.108597285,-2.63E-06,0,1,0
0,0.019913124,0.002990935,0.008944696,0.030962409,0.019913115,0.002990934,0.008944692,0.030962394,1.37E-05,2.06E-06,6.15E-06,2.13E-05,1.37E-05,2.06E-06,6.15E-06,2.13E-05,-0.43951385,37.18499744,-112.88,149.91,0.293464299,0.001799044,0.289876769,0.297632078,0.005085407,0.004657247,3.27E-05,0.014997564,0.003642431,0.012572053,7.88E-08,0.066663898,-0.9281057,0.002558317,-0.932682448,-0.924439388,33.31563636,0.011948927,33.29,33.34,0.153759186,-8.02E-06,0,1,0
0,0.019740287,0.000666335,0.017889392,0.020641606,0.019740277,0.000666334,0.017889383,0.020641596,1.36E-05,4.58E-07,1.23E-05,1.42E-05,1.36E-05,4.58E-07,1.23E-05,1.42E-05,0.334225113,17.37288591,-43.67,38.7,0.288178666,0.001899727,0.28282863,0.29263895,0.001380953,0.000938525,0.000111634,0.003504052,0.001015252,0.004183366,5.26E-08,0.026697627,-0.942539642,0.005728526,-0.95049349,-0.932786898,33.3090991,0.011511807,33.29,33.33,0.153846154,7.74E-05,0,1,0
0,0.023775207,0.008349213,0.009632749,0.045411533,0.023775196,0.008349209,0.009632745,0.045411511,1.64E-05,5.74E-06,6.63E-06,3.12E-05,1.64E-05,5.74E-06,6.63E-06,3.12E-05,-0.069819107,45.6365065,-175.09,211.71,0.282598181,0.002371589,0.277009713,0.287452307,0.00383174,0.005074995,3.88E-05,0.020008351,0.003820859,0.017455778,5.54E-08,0.138610698,-0.964192783,0.008011909,-0.975047387,-0.950605144,33.30309091,0.015240225,33.27,33.34,0.067834935,0.000254266,0,1,0
0,0.023805562,0.004861994,0.007568589,0.053668175,0.023805551,0.004861992,0.007568585,0.05366815,1.64E-05,3.35E-06,5.21E-06,3.69E-05,1.64E-05,3.35E-06,5.21E-06,3.69E-05,-0.546266968,48.31942963,-149.65,268.62,0.276769894,0.003244348,0.271074418,0.289425562,0.007242345,0.007339353,0.000236699,0.02871827,0.005305872,0.029183806,4.43E-08,0.282480903,-0.987468206,0.00659828,-0.994376053,-0.975171979,33.37540541,0.02008019,33.34,33.41,0.095022624,0.00035802,0,1,0
0,0.019273282,0.003698474,0.002752214,0.03509073,0.019273273,0.003698472,0.002752213,0.035090713,1.33E-05,2.54E-06,1.89E-06,2.41E-05,1.33E-05,2.54E-06,1.89E-06,2.41E-05,-0.139349548,36.28917971,-131.81,144.83,0.274635874,0.002247233,0.267227918,0.279456543,0.005264631,0.00520313,0.000157617,0.018448423,0.004766358,0.018900801,7.40E-08,0.14342522,-0.993117127,0.008010947,-1.01035247,-0.985720466,33.48745455,0.022092218,33.41,33.53,0.162895928,0.000581205,0,1,0
0,0.02733555,0.004927161,0.010320803,0.044035426,0.027335537,0.004927159,0.010320798,0.044035405,1.88E-05,3.39E-06,7.10E-06,3.03E-05,1.88E-05,3.39E-06,7.10E-06,3.03E-05,0.78570944,23.31297845,-158.47,99.67,0.269683198,0.003659214,0.264359422,0.278847208,0.007248047,0.007668107,3.11E-05,0.027004991,0.004329483,0.019445915,3.27E-08,0.1527607,-1.012082445,0.006302611,-1.02700978,-1.005065709,33.54153153,0.022064533,33.5,33.57,0.140192199,0.000518077,0,1,0
0,0.013810884,0.003095581,0.011008856,0.029586302,0.013810878,0.003095579,0.011008851,0.029586288,9.50E-06,2.13E-06,7.57E-06,2.04E-05,9.50E-06,2.13E-06,7.57E-06,2.04E-05,0.116821267,18.15102627,-111.34,56.74,0.25655019,0.00340804,0.249698863,0.264890837,0.002000245,0.002189516,9.85E-06,0.007595083,0.001429347,0.007880154,7.57E-08,0.065049195,-1.051965346,0.011771543,-1.066673808,-1.027451899,33.562,0.024598596,33.53,33.63,0.162895928,0.000535221,0,1,0
0,0.012282222,0.000514502,0.011008856,0.01376107,0.012282217,0.000514501,0.011008851,0.013761064,8.45E-06,3.54E-07,7.57E-06,9.47E-06,8.45E-06,3.54E-07,7.57E-06,9.47E-06,0.056936122,13.51907757,-33.19,19.8,0.248530245,0.00235154,0.244361753,0.254216447,0.001791349,0.001943295,2.88E-05,0.006772572,0.00137233,0.006489652,7.22E-08,0.045106081,-1.079310968,0.006304751,-1.088115975,-1.066914192,33.74387387,0.06615803,33.61,33.87,0.153759186,0.00202457,0,1,0
0,0.01601826,0.008121678,0.000688054,0.06054871,0.016004242,0.008149248,-0.003440266,0.060548681,1.10E-05,5.61E-06,-2.37E-06,4.17E-05,1.10E-05,5.61E-06,-2.37E-06,4.17E-05,1.5389819,52.47332431,-382.5,215.13,0.248847012,0.008020782,0.24018503,0.285719474,0.020995308,0.024569323,8.54E-06,0.084172048,0.020972988,0.095491441,1.85E-08,0.739790835,-1.097234149,0.005269886,-1.104729141,-1.088252326,33.978,0.075206383,33.84,34.11,0.149321267,0.002333115,0,1,0
0,0.014234545,0.010161672,0,0.049539854,0.014169231,0.010252533,-0.003440266,0.04953983,9.75E-06,7.05E-06,-2.37E-06,3.41E-05,9.75E-06,7.05E-06,-2.37E-06,3.41E-05,-0.680819672,81.30810359,-290.75,405.17,0.255067169,0.008376932,0.241419749,0.300618458,0.055876608,0.019541312,0.025637625,0.120485665,0.039913016,0.122778204,1.84E-08,1.023578284,-1.111015013,0.013887344,-1.130099749,-1.090861121,34.15126126,0.029958443,34.11,34.21,0.149236857,0.00083231,0,1,0
0,0.010828281,0.003779204,0,0.018577445,0.010818936,0.003805859,-0.00206416,0.018577436,7.44E-06,2.62E-06,-1.42E-06,1.28E-05,7.44E-06,2.62E-06,-1.42E-06,1.28E-05,-0.986634615,56.40546421,-268.19,237.69,0.24920423,0.001433775,0.245843249,0.252969654,0.006322982,0.006785022,0.000530904,0.026565534,0.003209523,0.014781433,6.96E-08,0.113093917,-1.081579805,0.006719052,-1.103048232,-1.075290022,34.19603604,0.027940712,34.15,34.25,0.085972851,-0.000702352,0,1,0
0,0.017336769,0.009359105,0.000688054,0.04678764,0.017294731,0.009436543,-0.004128319,0.046787618,1.19E-05,6.49E-06,-2.84E-06,3.22E-05,1.19E-05,6.49E-06,-2.84E-06,3.22E-05,0.253410633,70.56011291,-467.8,320.78,0.247014625,0.002227427,0.239871236,0.253801662,0.004615084,0.004105205,0.000148872,0.01502913,0.003522866,0.015779645,6.60E-08,0.126416408,-1.087427033,0.006771822,-1.095314548,-1.075260527,34.13681818,0.018287195,34.09,34.16,0.113122172,0.000130514,0,1,0
0,0.024784715,0.011068205,0.003440268,0.055044282,0.024784704,0.0110682,0.003440266,0.055044256,1.71E-05,7.62E-06,2.37E-06,3.79E-05,1.71E-05,7.62E-06,2.37E-06,3.79E-05,-0.790774449,67.50320132,-354.22,290.12,0.245170796,0.005928479,0.233585177,0.259417038,0.020385767,0.014361837,0.000132953,0.05384211,0.016961034,0.047814435,3.67E-08,0.343389749,-1.109441185,0.021501307,-1.147235413,-1.08820537,34.12657658,0.018183028,34.09,34.16,0.108535896,-0.000383468,0,1,0
0,0.02858302,0.011101658,0.007568589,0.057796496,0.028583006,0.011101653,0.007568585,0.057796469,1.97E-05,7.64E-06,5.21E-06,3.98E-05,1.97E-05,7.64E-06,5.21E-06,3.98E-05,0.374440045,53.34731797,-234.21,193.47,0.239133323,0.003501183,0.231796361,0.244750628,0.016603988,0.008850366,0.001295483,0.037460685,0.012219372,0.039365318,3.65E-08,0.2267865,-1.126352427,0.011779348,-1.144793259,-1.107331179,34.14381818,0.021866613,34.09,34.18,0.081447964,0.000515024,0,1,0
0,0.026579858,0.006887769,0.006880535,0.051604014,0.026579845,0.006887765,0.006880532,0.05160399,1.83E-05,4.74E-06,4.73E-06,3.55E-05,1.83E-05,4.74E-06,4.73E-06,3.55E-05,0.312249859,49.8166146,-136.14,240.08,0.237745739,0.003064846,0.227739837,0.242650971,0.011729289,0.007843694,0.001607177,0.030853684,0.008386628,0.039373243,4.55E-08,0.285786807,-1.12647011,0.010793033,-1.13929066,-1.108745961,34.21018018,0.03536125,34.16,34.27,0.081401922,0.000945244,0,1,0
0,0.025615984,0.004118735,0.014449124,0.053668175,0.025615972,0.004118733,0.014449117,0.05366815,1.76E-05,2.83E-06,9.94E-06,3.69E-05,1.76E-05,2.83E-06,9.94E-06,3.69E-05,-0.681397059,48.69734361,-184.3,224.26,0.232790251,0.002650552,0.226017288,0.23680272,0.005018028,0.004607463,5.09E-05,0.016057731,0.00410237,0.020039548,5.79E-08,0.169156729,-1.136649512,0.009303935,-1.147949967,-1.121021806,34.26672727,0.019913864,34.23,34.31,0.099547511,0.000181232,0,1,0
0,0.023702821,0.004337007,0.009632749,0.0488518,0.02370281,0.004337005,0.009632745,0.048851777,1.63E-05,2.98E-06,6.63E-06,3.36E-05,1.63E-05,2.98E-06,6.63E-06,3.36E-05,0.106992651,51.15427388,-293.39,237,0.229886803,0.001632141,0.223531265,0.233324033,0.00256502,0.004493481,8.86E-06,0.015619732,0.002567313,0.015087368,4.50E-08,0.113135169,-1.144186774,0.005495044,-1.154499451,-1.138268332,34.2681982,0.018897457,34.23,34.31,0.104013567,-0.00048789,0,1,0
0,0.022198288,0.004443282,0.009632749,0.052292068,0.022198277,0.00444328,0.009632745,0.052292043,1.53E-05,3.06E-06,6.63E-06,3.60E-05,1.53E-05,3.06E-06,6.63E-06,3.60E-05,0.43010181,45.91422339,-162.69,184.31,0.230402066,0.004649662,0.225155341,0.255525797,0.027576891,0.023270411,0.000134149,0.08536926,0.021732824,0.064754699,2.98E-08,0.538862676,-1.167507165,0.015960866,-1.188793834,-1.147845671,34.24272727,0.01445426,34.21,34.27,0.117647059,4.18E-05,0,1,0
0,0.021828576,0.008409094,0.002064161,0.0488518,0.021828566,0.00840909,0.00206416,0.048851777,1.50E-05,5.79E-06,1.42E-06,3.36E-05,1.50E-05,5.79E-06,1.42E-06,3.36E-05,1.159123303,54.9782512,-244.39,219.08,0.227719402,0.014632776,0.211935243,0.32694006,0.168129579,0.157195522,0.000541116,0.535139706,0.144491858,0.29014345,9.12E-09,2.383952167,-1.316972999,0.141145167,-1.514875032,-1.154511301,34.25153153,0.029870537,34.21,34.34,0.090497738,0.000605388,0,1,0
0,0.011474556,0.001206149,0.006880535,0.014449124,0.01147455,0.001206149,0.006880532,0.014449117,7.90E-06,8.30E-07,4.73E-06,9.94E-06,7.90E-06,8.30E-07,4.73E-06,9.94E-06,-1.051085359,36.48451743,-122.77,136.14,0.22144086,0.002174068,0.216777466,0.226008316,0.040886341,0.061632191,0.000106518,0.236329415,0.015050525,0.044556146,5.87E-08,0.30590578,-1.211775489,0.057201966,-1.392514633,-1.172056163,34.35236364,0.018286969,34.33,34.39,0.149236857,-2.45E-05,0,1,0
0,0.020821403,0.005975709,0.004816375,0.050915961,0.020821393,0.005975706,0.004816372,0.050915937,1.43E-05,4.11E-06,3.31E-06,3.50E-05,1.43E-05,4.11E-06,3.31E-06,3.50E-05,-0.701312217,52.99385127,-221.08,189.24,0.215496039,0.00248532,0.210206714,0.220790081,0.004516369,0.0041505,0.000247687,0.017067278,0.003475175,0.014380916,5.48E-08,0.101097904,-1.195722044,0.006179171,-1.205303517,-1.186806714,34.40972973,0.027194974,34.34,34.45,0.099547511,0.000692085,0,1,0
0,0.026921262,0.007665187,0.008944696,0.050227907,0.026921249,0.007665184,0.008944692,0.050227884,1.85E-05,5.27E-06,6.15E-06,3.46E-05,1.85E-05,5.27E-06,6.15E-06,3.46E-05,0.831955907,62.88873427,-190.31,263.65,0.213808035,0.002649748,0.206867579,0.219109451,0.011392969,0.006592628,0.001447307,0.028675232,0.008450455,0.027674212,4.54E-08,0.169267333,-1.2083896,0.005401409,-1.214354903,-1.194895296,34.46309091,0.028595787,34.41,34.53,0.072357264,0.000786962,0,1,0
0,0.025816796,0.004356712,0.01376107,0.048163747,0.025816783,0.00435671,0.013761064,0.048163724,1.78E-05,3.00E-06,9.47E-06,3.31E-05,1.78E-05,3.00E-06,9.47E-06,3.31E-05,-0.685503394,62.62760355,-266.19,224.92,0.214556982,0.001579724,0.210475979,0.218649931,0.003156023,0.003254092,0.000178135,0.013703211,0.002712208,0.012551435,5.53E-08,0.112099793,-1.197374199,0.001990886,-1.201533001,-1.193662077,34.49864865,0.015096476,34.47,34.53,0.131221719,-1.68E-05,0,1,0
0,0.023356459,0.00499612,0.01376107,0.052292068,0.023356448,0.004996117,0.013761064,0.052292043,1.61E-05,3.44E-06,9.47E-06,3.60E-05,1.61E-05,3.44E-06,9.47E-06,3.60E-05,-0.039643665,53.71128205,-191.36,277.3,0.211316832,0.002337261,0.204458912,0.217432683,0.006664198,0.006418675,0.000180815,0.025678842,0.006665662,0.028561124,4.88E-08,0.234672771,-1.212175992,0.004840924,-1.218043339,-1.201796583,34.50236364,0.021905884,34.47,34.57,0.117647059,0.000438924,0,1,0
0,0.022621023,0.002527443,0.008944696,0.044035426,0.022621012,0.002527442,0.008944692,0.044035405,1.56E-05,1.74E-06,6.15E-06,3.03E-05,1.56E-05,1.74E-06,6.15E-06,3.03E-05,-0.493798756,49.86784885,-173.21,207.84,0.212659091,0.002254212,0.207343133,0.218761717,0.005136602,0.006011545,0.000221733,0.025491497,0.002802543,0.013515832,6.53E-08,0.112481482,-1.206009188,0.002510274,-1.210994478,-1.202285722,34.57576577,0.016848533,34.55,34.61,0.054267948,0.000311688,0,1,0
0,0.024781602,0.007251706,0.009632749,0.049539854,0.02478159,0.007251703,0.009632745,0.04953983,1.71E-05,4.99E-06,6.63E-06,3.41E-05,1.71E-05,4.99E-06,6.63E-06,3.41E-05,2.387511312,64.53968483,-220.79,167,0.213852321,0.002684571,0.207026475,0.219054413,0.009680067,0.007235461,0.001048972,0.026933425,0.006975492,0.02725132,4.69E-08,0.178251823,-1.206463605,0.003058893,-1.210228737,-1.198251381,34.65036364,0.022398347,34.59,34.71,0.122171946,0.000530893,0,1,0
0,0.023529251,0.001049256,0.016513285,0.026834087,0.02352924,0.001049255,0.016513277,0.026834075,1.62E-05,7.22E-07,1.14E-05,1.85E-05,1.62E-05,7.22E-07,1.14E-05,1.85E-05,-1.385749011,55.55349125,-352.12,186.83,0.216296324,0.002010671,0.210643367,0.220051243,0.004102829,0.002126066,0.000535781,0.007563664,0.003006897,0.010704554,4.80E-08,0.055690585,-1.192632712,0.005380251,-1.198341183,-1.184767123,34.72117117,0.021170213,34.66,34.75,0.081401922,-0.000199544,0,1,0
0,0.024079538,0.00338115,0.022705766,0.044035426,0.024079527,0.003381148,0.022705756,0.044035405,1.66E-05,2.33E-06,1.56E-05,3.03E-05,1.66E-05,2.33E-06,1.56E-05,3.03E-05,-0.024649321,25.02968058,-69.84,51.04,0.216501312,0.001145779,0.21359301,0.219009563,0.00129224,0.001863912,3.93E-06,0.007011289,0.00106647,0.006065113,4.12E-08,0.054752575,-1.189154018,0.002482097,-1.196849418,-1.185052745,34.66454545,0.018956235,34.63,34.71,0.153846154,-0.000456957,0,1,0
0,0.022394004,0.007776644,0.011008856,0.048163747,0.022393994,0.00777664,0.011008851,0.048163724,1.54E-05,5.35E-06,7.57E-06,3.31E-05,1.54E-05,5.35E-06,7.57E-06,3.31E-05,1.415782928,57.95000488,-206.68,323.66,0.214216539,0.001769621,0.209723689,0.219285893,0.004635286,0.005079775,1.74E-05,0.017758297,0.004194369,0.017682089,6.22E-08,0.131971249,-1.199883106,0.002071464,-1.202506308,-1.196524058,34.68531532,0.02893982,34.63,34.73,0.149236857,0.00061662,0,1,0
0,0.021879946,0.003740207,0.01376107,0.04678764,0.021879936,0.003740205,0.013761064,0.046787618,1.51E-05,2.57E-06,9.47E-06,3.22E-05,1.51E-05,2.57E-06,9.47E-06,3.22E-05,-1.210797511,80.80710325,-258.4,254.9,0.215267428,0.002216696,0.209755137,0.221620504,0.00612401,0.005290082,0.000434766,0.019709291,0.004032844,0.021000268,6.19E-08,0.16634967,-1.198112189,0.003263579,-1.20220944,-1.189786606,34.71882883,0.019532313,34.68,34.75,0.135746606,0.000261583,0,1,0
0,0.030539769,0.008480288,0.011008856,0.052292068,0.030539755,0.008480284,0.011008851,0.052292043,2.10E-05,5.83E-06,7.57E-06,3.60E-05,2.10E-05,5.83E-06,7.57E-06,3.60E-05,-0.096600679,46.3004022,-292.89,198.73,0.220829662,0.002954218,0.213799471,0.231133638,0.012116976,0.011905113,0.000318523,0.036026435,0.011195314,0.042955692,7.14E-08,0.356125808,-1.184808672,0.009049974,-1.203466558,-1.1724611,34.76236364,0.013479093,34.75,34.79,0.167420814,-1.01E-05,0,1,0
0,0.034576246,0.00638732,0.020641606,0.061924817,0.03457623,0.006387317,0.020641596,0.061924788,2.38E-05,4.39E-06,1.42E-05,4.26E-05,2.38E-05,4.39E-06,1.42E-05,4.26E-05,0.025195025,72.65831735,-456.32,257.8,0.269541873,0.025407819,0.218741108,0.293186173,0.029630676,0.02797527,0.002240274,0.102014829,0.022089314,0.089207066,6.50E-08,0.734782459,-1.035023242,0.085922324,-1.201546594,-0.957972437,34.74243243,0.014470611,34.71,34.77,0.067834935,-0.00015602,0,1,0
0,0.040966785,0.001459092,0.030962409,0.047475693,0.040966765,0.001459091,0.030962394,0.047475671,2.82E-05,1.00E-06,2.13E-05,3.27E-05,2.82E-05,1.00E-06,2.13E-05,3.27E-05,0.16772753,52.21639034,-272.76,360.67,0.937536013,0.018662757,0.909389974,0.976454149,0.090976562,0.042521083,0.036431165,0.178946038,0.075289703,0.144771876,6.29E-08,0.674622728,1.201009367,0.058620531,1.082562381,1.294224104,33.66774775,0.01128538,33.65,33.68,0.18089316,-0.000253422,0,0,1
0,0.040992112,0.002254363,0.016513285,0.057796496,0.040992092,0.002254362,0.016513277,0.057796469,2.82E-05,1.55E-06,1.14E-05,3.98E-05,2.82E-05,1.55E-06,1.14E-05,3.98E-05,-0.796595023,74.7984515,-437.17,300.96,0.909517815,0.010940418,0.87560109,0.925135518,0.142854039,0.033087161,0.080856599,0.22367618,0.111437605,0.230710979,2.52E-08,1.067088627,1.052922904,0.02245381,1.017885226,1.085450344,33.61054054,0.024635645,33.57,33.66,0.140271493,-0.000668041,0,0,1
0,0.042175969,0.000918921,0.032338516,0.049539854,0.042175949,0.00091892,0.0323385,0.04953983,2.90E-05,6.32E-07,2.23E-05,3.41E-05,2.90E-05,6.32E-07,2.23E-05,3.41E-05,0.453778281,45.7251217,-334.39,258.3,0.942833854,0.015624948,0.89743446,0.981296691,0.143792854,0.062405153,0.025122342,0.276596405,0.102604046,0.20656448,3.74E-08,0.887630175,1.166341713,0.055327419,1.053177422,1.238931568,33.52672727,0.026288922,33.49,33.57,0.167420814,-0.000725289,0,0,1
0,0.04199228,0.000962033,0.033714623,0.0488518,0.04199226,0.000962033,0.033714607,0.048851777,2.89E-05,6.62E-07,2.32E-05,3.36E-05,2.89E-05,6.62E-07,2.32E-05,3.36E-05,0.267512719,42.35313744,-253.51,234.67,0.953313675,0.012998679,0.924616112,0.981125603,0.104552132,0.038964341,0.026205153,0.179119024,0.078022796,0.168044438,4.29E-08,0.89588453,1.242034514,0.035289012,1.183910568,1.330213503,33.4654955,0.02082699,33.43,33.5,0.149236857,-0.000534574,0,0,1
0,0.042474073,0.000901615,0.033026569,0.050915961,0.042474053,0.000901614,0.033026554,0.050915937,2.92E-05,6.20E-07,2.27E-05,3.50E-05,2.92E-05,6.20E-07,2.27E-05,3.50E-05,-0.340458145,43.14046652,-167.07,192.6,0.979303785,0.013283747,0.958495374,1.015693603,0.082957984,0.057828178,0.009384275,0.230038751,0.059973188,0.17744806,7.68E-08,1.198771497,1.352802429,0.026696002,1.318813793,1.427334305,33.386,0.033390254,33.33,33.43,0.067873303,-0.000978473,0,0,1
0,0.042322678,0.002839193,0.017201338,0.087382798,0.042322658,0.002839192,0.01720133,0.087382756,2.91E-05,1.95E-06,1.18E-05,6.01E-05,2.91E-05,1.95E-06,1.18E-05,6.01E-05,0.184098361,37.40218591,-202.44,152.11,1.013256158,0.018564893,0.979135761,1.059952438,0.111936104,0.087435512,0.006681012,0.284136311,0.101441639,0.221295811,5.35E-08,1.306682905,1.440569406,0.045620473,1.323229401,1.480540908,33.31594595,0.017927702,33.27,33.34,0.194460147,-0.00047736,0,0,1
0,0.041923008,0.001199281,0.033714623,0.04678764,0.041922988,0.00119928,0.033714607,0.046787618,2.88E-05,8.25E-07,2.32E-05,3.22E-05,2.88E-05,8.25E-07,2.32E-05,3.22E-05,0.006170814,52.99334811,-224.92,297.08,1.044126042,0.024216858,1.009632003,1.10254635,0.232276009,0.097251034,0.108582232,0.540061151,0.176920882,0.287763771,2.47E-08,1.301005099,1.426507589,0.07669399,1.312053622,1.560824912,33.22609091,0.025301651,33.18,33.29,0.095022624,-0.000612357,0,0,1
0,0.041539286,0.003574374,0.017201338,0.072933674,0.041539266,0.003574372,0.01720133,0.072933639,2.86E-05,2.46E-06,1.18E-05,5.02E-05,2.86E-05,2.46E-06,1.18E-05,5.02E-05,0.045274166,81.2246396,-462.43,389.23,1.031330165,0.025462382,0.979480435,1.077491085,0.168372833,0.05261306,0.057846869,0.266626749,0.12484937,0.25308099,5.46E-08,1.245643968,1.446303904,0.078800126,1.360388369,1.575446965,33.1554955,0.024114544,33.09,33.21,0.13566987,-0.000503335,0,0,1
0,0.040581148,0.003885583,0.011008856,0.059172603,0.040581129,0.003885581,0.011008851,0.059172575,2.79E-05,2.67E-06,7.57E-06,4.07E-05,2.79E-05,2.67E-06,7.57E-06,4.07E-05,-0.360955882,68.63937599,-268.1,248.67,1.041965296,0.019324849,0.986029307,1.093357163,0.289166218,0.111507236,0.12108403,0.541608317,0.229723418,0.456364574,3.69E-08,2.311982587,1.362118637,0.117202753,1.206178417,1.612115587,33.11436364,0.018951003,33.09,33.15,0.090497738,-0.000402498,0,0,1
0,0.038954415,0.007233312,0.002064161,0.087382798,0.038761368,0.008205005,-0.026146022,0.087382756,2.67E-05,5.65E-06,-1.80E-05,6.01E-05,2.67E-05,5.65E-06,-1.80E-05,6.01E-05,0.462211538,84.5479481,-367.4,314.81,1.054781246,0.016715264,1.029450211,1.095911535,0.153402378,0.051733247,0.064524114,0.286571961,0.111519699,0.250809627,5.71E-08,1.365768215,1.541887047,0.054878045,1.450000509,1.613401276,33.11036036,0.02147397,33.07,33.15,0.067873303,-0.00038961,0,0,1
0,0.040228974,0.004279887,0.017201338,0.087382798,0.040228954,0.004279885,0.01720133,0.087382756,2.77E-05,2.94E-06,1.18E-05,6.01E-05,2.77E-05,2.94E-06,1.18E-05,6.01E-05,-0.119683437,59.24038193,-215.93,274.06,1.087320432,0.03446963,1.033973069,1.170512304,0.16787697,0.074618917,0.070713359,0.399488296,0.134976034,0.29062442,4.22E-08,1.360750769,1.639494692,0.070211093,1.562168424,1.747701973,33.05163636,0.015639535,33,33.07,0.108535896,-0.000269143,0,0,1
0,0.041912889,0.000963274,0.026834087,0.051604014,0.04191287,0.000963274,0.026834075,0.05160399,2.88E-05,6.63E-07,1.85E-05,3.55E-05,2.88E-05,6.63E-07,1.85E-05,3.55E-05,0.140361991,34.65693126,-193.32,218.83,1.128562281,0.015053764,1.092250277,1.161019983,0.172948332,0.050356014,0.070060714,0.300518333,0.125766835,0.279919308,5.24E-08,1.510226891,1.776048223,0.017731628,1.747982893,1.802087991,33.01288288,0.024655734,32.97,33.05,0.14479638,-0.000594068,0,0,1
0,0.040720471,0.002031428,0.015825231,0.049539854,0.040720452,0.002031427,0.015825224,0.04953983,2.80E-05,1.40E-06,1.09E-05,3.41E-05,2.80E-05,1.40E-06,1.09E-05,3.41E-05,0.531209723,57.56702684,-403.25,231.05,1.166111433,0.031936564,1.109095725,1.236611668,0.154821508,0.054458311,0.081100424,0.290741511,0.123605014,0.300496578,3.67E-08,1.684438492,1.923556837,0.068665836,1.802800467,2.000187091,32.97763636,0.012786873,32.95,33,0.18089316,0.000121543,0,0,1
0,0.041075394,0.00130794,0.035778783,0.048163747,0.041075375,0.001307939,0.035778766,0.048163724,2.83E-05,9.00E-07,2.46E-05,3.31E-05,2.83E-05,9.00E-07,2.46E-05,3.31E-05,-0.599236425,32.61136488,-180.98,122.49,1.158124954,0.016690353,1.126252404,1.207369607,0.139972485,0.072271194,0.029686042,0.281259697,0.105933409,0.247598726,5.91E-08,1.04064347,1.910435456,0.028037591,1.84245339,1.952301461,32.97072072,0.012571361,32.95,32.99,0.171945701,-9.48E-06,0,0,1
0,0.041373499,0.00023461,0.041283211,0.042659319,0.041373479,0.00023461,0.041283192,0.042659298,2.85E-05,1.61E-07,2.84E-05,2.94E-05,2.85E-05,1.61E-07,2.84E-05,2.94E-05,-0.145395928,26.67054691,-80.6,104.35,1.14349672,0.013342878,1.125056439,1.182614053,0.115993961,0.040571837,0.050757307,0.216305863,0.081513758,0.175970078,6.27E-08,0.992654918,1.884679468,0.025646065,1.835337745,1.91640905,32.96327273,0.013287663,32.93,32.99,0.126696833,-0.000122354,0,0,1
0,0.041280102,4.62E-05,0.040595158,0.041283211,0.041280082,4.62E-05,0.040595139,0.041283192,2.84E-05,3.18E-08,2.79E-05,2.84E-05,2.84E-05,3.18E-08,2.79E-05,2.84E-05,0.171441492,21.94784171,-56.79,68.98,1.121713151,0.008883776,1.101749495,1.142135324,0.063178883,0.027098223,0.01335275,0.139154919,0.049152143,0.106829163,5.71E-08,0.51109166,1.862232126,0.008292182,1.852109766,1.879795964,32.95648649,0.014246773,32.93,32.99,0.144714528,-0.000181467,0,0,1
0,0.041280876,4.00E-05,0.040595158,0.041283211,0.041280857,4.00E-05,0.040595139,0.041283192,2.84E-05,2.75E-08,2.79E-05,2.84E-05,2.84E-05,2.75E-08,2.79E-05,2.84E-05,-0.135661765,20.16218788,-48.21,62.93,1.107769508,0.008898742,1.088570375,1.12813264,0.051152908,0.031017164,0.011990739,0.130031481,0.036877256,0.107663239,6.05E-08,0.75220347,1.826362305,0.02054629,1.801206236,1.863104635,32.94563636,0.01247013,32.91,32.97,0.167420814,3.03E-05,0,0,1
0,0.041268423,0.000136107,0.040595158,0.042659319,0.041268403,0.000136107,0.040595139,0.042659298,2.84E-05,9.36E-08,2.79E-05,2.94E-05,2.84E-05,9.36E-08,2.79E-05,2.94E-05,-0.10124364,22.77185903,-67.16,103.31,1.121091592,0.012626596,1.099093985,1.147553425,0.056879559,0.035027862,0.006302259,0.13428644,0.04663291,0.122973149,8.85E-08,0.871120847,1.866710336,0.01364673,1.834480098,1.882475956,32.95792793,0.012384029,32.93,32.97,0.144714528,-1.58E-05,0,0,1
0,0.041282433,0.000186573,0.038530997,0.044035426,0.041282414,0.000186573,0.038530979,0.044035405,2.84E-05,1.28E-07,2.65E-05,3.03E-05,2.84E-05,1.28E-07,2.65E-05,3.03E-05,0.210825792,22.52015228,-60.72,84.23,1.149117027,0.028366998,1.118328074,1.217932069,0.103373848,0.075455732,0.010678421,0.293419217,0.083005388,0.199041545,4.99E-08,0.991647265,1.916375127,0.030456445,1.867949184,1.986195706,32.95963636,0.012279123,32.93,32.97,0.153846154,-4.91E-05,0,0,1
0,0.041152598,0.000405978,0.037842944,0.04678764,0.041152578,0.000405978,0.037842926,0.046787618,2.83E-05,2.79E-07,2.60E-05,3.22E-05,2.83E-05,2.79E-07,2.60E-05,3.22E-05,0.087337479,23.68085423,-64.14,87.61,1.166877228,0.020936495,1.12544701,1.208798117,0.103204993,0.063745049,0.026570224,0.290089239,0.072809393,0.168763768,5.18E-08,0.891690068,1.977614968,0.057255465,1.896648259,2.066940309,32.9336036,0.010804803,32.91,32.95,0.158281515,-0.000150579,0,0,1
0,0.041066833,0.00055181,0.036466837,0.050227907,0.041066813,0.00055181,0.03646682,0.050227884,2.83E-05,3.80E-07,2.51E-05,3.46E-05,2.83E-05,3.80E-07,2.51E-05,3.46E-05,-0.522635747,23.60821571,-107.71,117.6,1.189790303,0.027475048,1.158782774,1.28101347,0.12217468,0.088166066,0.016009134,0.418629796,0.099533031,0.222330049,4.66E-08,1.179831692,2.037532234,0.01484937,2.012175829,2.053791436,32.89612613,0.018462095,32.84,32.93,0.153846154,-0.000317831,0,0,1
0,0.041263753,0.001504088,0.031650462,0.062612871,0.041263733,0.001504087,0.031650447,0.062612841,2.84E-05,1.03E-06,2.18E-05,4.31E-05,2.84E-05,1.03E-06,2.18E-05,4.31E-05,0.628540724,76.17239475,-755.34,331.38,1.202658598,0.027713838,1.167427396,1.256434322,0.162634876,0.10750152,0.034120263,0.367541584,0.131918357,0.297443173,7.27E-08,1.379706749,2.041312304,0.016010138,2.008123407,2.057500645,32.83227273,0.049187195,32.73,32.89,0.063348416,-0.000694858,0,0,1
0,0.040511097,0.000544104,0.037842944,0.044035426,0.040511078,0.000544104,0.037842926,0.044035405,2.79E-05,3.74E-07,2.60E-05,3.03E-05,2.79E-05,3.74E-07,2.60E-05,3.03E-05,-0.070864895,37.42293359,-237.77,177.5,1.155500566,0.017420156,1.130586204,1.214877646,0.073247927,0.039575905,0.017558719,0.225952597,0.044785099,0.110053736,7.22E-08,0.665719259,1.968517824,0.022669848,1.94272293,2.00748946,32.82918919,0.013092542,32.79,32.84,0.122102883,0.000135837,0,0,1
0,0.037006395,0.000911099,0.024769927,0.037842944,0.037006378,0.000911098,0.024769915,0.037842926,2.55E-05,6.27E-07,1.70E-05,2.60E-05,2.55E-05,6.27E-07,1.70E-05,2.60E-05,0.260067835,13.67511388,-59.47,43.73,0.377720868,0.003690649,0.369374455,0.385814268,0.007525213,0.007800726,0.000269156,0.030959444,0.004666402,0.023214338,4.86E-08,0.194269698,-0.640619721,0.006151718,-0.650410424,-0.633178667,31.17198198,0.036510391,31.11,31.23,0.171848502,0.001088101,1,0,0
0,0.036890254,0.001674099,0.016513285,0.042659319,0.036890237,0.001674098,0.016513277,0.042659298,2.54E-05,1.15E-06,1.14E-05,2.94E-05,2.54E-05,1.15E-06,1.14E-05,2.94E-05,-0.073093891,20.14311349,-106.6,80.95,0.387605558,0.003472888,0.374193235,0.396394804,0.016747582,0.017431871,0.000185095,0.056967722,0.013372524,0.058215339,4.81E-08,0.5512434,-0.616157951,0.014314347,-0.64679193,-0.603356554,31.21702703,0.019479469,31.15,31.25,0.167420814,0.00017901,1,0,0
0,0.03714555,7.96E-05,0.036466837,0.03715489,0.037145533,7.96E-05,0.03646682,0.037154873,2.56E-05,5.48E-08,2.51E-05,2.56E-05,2.56E-05,5.48E-08,2.51E-05,2.56E-05,-0.005757919,10.9860381,-25.27,20.65,0.390671629,0.002753909,0.3838529,0.396654818,0.005837005,0.005624258,0.000113449,0.021804121,0.004995808,0.022648936,4.83E-08,0.155424734,-0.594297333,0.006850161,-0.606604467,-0.58530885,31.21709091,0.012235972,31.19,31.23,0.167420814,-4.48E-05,1,0,0
0,0.037153334,3.27E-05,0.036466837,0.03715489,0.037153316,3.27E-05,0.03646682,0.037154873,2.56E-05,2.25E-08,2.51E-05,2.56E-05,2.56E-05,2.25E-08,2.51E-05,2.56E-05,0.039491238,12.78921074,-29.75,37.87,0.394465329,0.002081526,0.38950855,0.398836608,0.003560502,0.003347056,5.68E-05,0.013081446,0.001809192,0.009677398,6.73E-08,0.093100933,-0.579322933,0.007652571,-0.595135471,-0.570600179,31.20711712,0.016732521,31.17,31.23,0.176370831,-0.000310284,1,0,0
0,0.03715489,2.36E-16,0.03715489,0.03715489,0.037154873,3.75E-16,0.037154873,0.037154873,2.56E-05,3.59E-19,2.56E-05,2.56E-05,2.56E-05,3.59E-19,2.56E-05,2.56E-05,-0.047579186,13.45035993,-35.96,31.12,0.39326014,0.001486457,0.388402117,0.396805495,0.00332478,0.003378736,7.54E-05,0.01259901,0.003136086,0.010755756,7.11E-08,0.067745918,-0.58310121,0.002874091,-0.588995205,-0.579521964,31.18236364,0.012928283,31.17,31.21,0.167420814,-0.000206298,1,0,0
0,0.037120682,0.000156546,0.036466837,0.037842944,0.037120664,0.000156546,0.03646682,0.037842926,2.55E-05,1.08E-07,2.51E-05,2.60E-05,2.55E-05,1.08E-07,2.51E-05,2.60E-05,0.09704918,11.55981947,-29.95,23.78,0.392258288,0.00170785,0.3885883,0.396672597,0.004377684,0.003107235,0.000139701,0.01089197,0.002772731,0.011508247,7.05E-08,0.071428522,-0.587420271,0.004369948,-0.591581505,-0.577935492,31.15792793,0.020318062,31.11,31.19,0.176370831,-0.000368199,1,0,0
0,0.036428698,0.00091235,0.031650462,0.037842944,0.036428681,0.000912349,0.031650447,0.037842926,2.51E-05,6.28E-07,2.18E-05,2.60E-05,2.51E-05,6.28E-07,2.18E-05,2.60E-05,-0.009236425,14.81300936,-61.41,48.61,0.398465159,0.002449198,0.392487182,0.40430626,0.008593428,0.00663563,0.000449931,0.021264043,0.006646903,0.026882804,4.99E-08,0.187692707,-0.570478733,0.004053831,-0.577774149,-0.564818055,31.11236364,0.022194482,31.07,31.15,0.190045249,-0.00054018,1,0,0
0,0.036468393,8.66E-05,0.035778783,0.03715489,0.036468376,8.66E-05,0.035778766,0.037154873,2.51E-05,5.96E-08,2.46E-05,2.56E-05,2.51E-05,5.96E-08,2.46E-05,2.56E-05,-0.02697004,12.24874719,-32.91,28,0.395696105,0.002541834,0.382598887,0.400906998,0.007764289,0.004775178,0.000535213,0.020543415,0.005910128,0.02565939,3.87E-08,0.200044838,-0.579193989,0.007199656,-0.590815682,-0.570316141,31.08783784,0.013517117,31.07,31.11,0.171848502,-9.02E-05,1,0,0
0,0.036405348,0.000312148,0.033714623,0.037842944,0.036405331,0.000312148,0.033714607,0.037842926,2.50E-05,2.15E-07,2.32E-05,2.60E-05,2.50E-05,2.15E-07,2.32E-05,2.60E-05,-0.299632353,15.06769122,-82.67,46.46,0.39213116,0.002049441,0.388055713,0.396618888,0.002058018,0.001867319,0.000131485,0.007843324,0.001588999,0.008017918,6.41E-08,0.073479309,-0.585645722,0.005315034,-0.593724155,-0.575903788,31.07690909,0.017148838,31.05,31.11,0.176470588,-0.000194757,1,0,0
0,0.036466837,3.27E-05,0.035778783,0.03715489,0.03646682,3.27E-05,0.035778766,0.037154873,2.51E-05,2.25E-08,2.46E-05,2.56E-05,2.51E-05,2.25E-08,2.46E-05,2.56E-05,0.263806561,11.58550097,-30.26,34.69,0.391450809,0.002339748,0.386089242,0.397994389,0.005373835,0.00482387,0.000347774,0.021006395,0.004260672,0.020539431,6.22E-08,0.195172315,-0.591429148,0.003427681,-0.596683839,-0.586412288,31.04711712,0.015386164,31.01,31.09,0.180995475,-0.000177606,1,0,0
0,0.036724954,0.000333128,0.036466837,0.03715489,0.036724937,0.000333127,0.03646682,0.037154873,2.53E-05,2.29E-07,2.51E-05,2.56E-05,2.53E-05,2.29E-07,2.51E-05,2.56E-05,-0.053470888,10.10088119,-24.86,25.16,0.392699633,0.002479097,0.38767042,0.399323146,0.006459782,0.005684972,0.000427811,0.021621064,0.005042138,0.023812223,7.14E-08,0.169448123,-0.587996856,0.004041601,-0.596362824,-0.584029082,31.02818182,0.012804958,31.01,31.05,0.185415489,1.15E-05,1,0,0
0,0.036401456,0.001053907,0.030274355,0.038530997,0.036401439,0.001053907,0.030274341,0.038530979,2.50E-05,7.25E-07,2.08E-05,2.65E-05,2.50E-05,7.25E-07,2.08E-05,2.65E-05,0.200022624,20.69376339,-70.53,149.37,0.390250048,0.00189222,0.384958786,0.393990004,0.002025338,0.003336174,8.74E-05,0.016619343,0.003377816,0.016145676,4.89E-08,0.116407399,-0.592102271,0.004918843,-0.598937368,-0.5860811,31.04387387,0.011943649,31.03,31.07,0.176470588,8.95E-06,1,0,0
0,0.035869071,0.000274577,0.032338516,0.036466837,0.035869054,0.000274577,0.0323385,0.03646682,2.47E-05,1.89E-07,2.23E-05,2.51E-05,2.47E-05,1.89E-07,2.23E-05,2.51E-05,-0.246647824,11.97016767,-30.89,30.08,0.392205407,0.001694301,0.389036756,0.395992072,0.004687975,0.005566892,0.000113879,0.022508504,0.001657685,0.007983139,4.81E-08,0.06519918,-0.588246736,0.00381617,-0.597305494,-0.581918942,31.02563636,0.015581298,30.99,31.05,0.185415489,-0.000116854,1,0,0